timestamp,Pitch,Roll,Yaw,accl_x,accl_y,accl_z,gyro_x,gyro_y,gyro_z,magn_x,magn_y,magn_z,quat_w,quat_x,quat_y,quat_z
0,0.5337964,4.270004,174.87039,-0.12861422,0.62632126,9.625727,-0.024129178,-0.01450805,0.028710665,-0.29275444,-0.10886873,-0.9499697,-0.044891182,0.0029832558,-0.037424773,-0.9982862
99,0.5337964,4.270004,174.87039,-0.12861422,0.62632126,9.625727,-0.024129178,-0.01450805,0.028710665,-0.29275444,-0.10886873,-0.9499697,-0.044891182,0.0029832558,-0.037424773,-0.9982862
206,0.29031214,3.549114,175.21748,-0.08135597,0.634098,9.636495,-0.023823744,-0.019547688,0.02733622,-0.29541898,-0.082429,-0.9518052,-0.04178147,0.0012379934,-0.031045498,-0.9986436
312,0.51595503,3.8794544,175.18936,-0.12502497,0.61854464,9.629914,-0.024129178,-0.016798794,0.027488936,-0.2883471,-0.09706651,-0.9525933,-0.042096253,0.0030754565,-0.034006853,-0.9985299
419,0.57141435,4.053012,175.1903,-0.1381855,0.61495537,9.587442,-0.02657264,-0.017867807,0.030543262,-0.28848103,-0.098698005,-0.9523851,-0.042109553,0.0034952338,-0.035539348,-0.9984746
526,0.798723,4.6036625,175.03864,-2.1122642,3.7040892,8.19123,-0.02397646,-0.020158552,0.031001411,-0.28115195,-0.11168306,-0.9531424,-0.043526273,0.005219619,-0.040426556,-0.9982204
632,-3.3664231,5.045452,154.2024,-4.6504507,10.062417,11.270792,1.156826,-1.8745927,-5.004208,-0.27405998,-0.18630923,-0.9434935,-0.22165692,-0.038425762,-0.03633579,-0.97368956
739,-12.982843,16.995993,168.88174,-3.266801,-1.0576276,10.214959,2.3970351,-0.7797695,1.2061534,-0.43651575,0.078432344,-0.89627135,-0.07856709,-0.12551095,-0.13530517,-0.97967684
846,-17.649284,39.904076,170.48294,-2.9593232,-5.7427745,8.400602,5.003444,0.059406642,0.09865474,-0.47590274,0.3978984,-0.78434265,-0.024885824,-0.1716783,-0.32406923,-0.9299927
952,-25.029797,58.314754,175.6026,-0.8943174,-8.803194,8.5423765,4.1317396,-0.29168814,2.4233024,-0.3971378,0.6974233,-0.59655875,0.07278986,-0.20734356,-0.4680237,-0.855958
1059,-41.550686,68.967896,-170.11029,0.5521438,-9.855437,1.4985051,1.5294538,0.49098295,3.9351938,-0.106531166,0.93310237,-0.34346914,0.26650852,-0.24566014,-0.5525935,-0.7505096
1166,-58.62229,48.309357,-131.40822,3.2847471,-7.037291,1.6360924,0.47510046,2.0134118,2.7304149,0.36580765,0.9211365,-0.13301235,0.50994337,-0.26031652,-0.5090008,-0.6427373
1272,-57.693806,36.039574,-112.11813,3.691527,-7.257431,-0.55692947,1.052979,2.1058052,1.6212363,0.51448107,0.8574559,0.008868747,0.5888866,-0.2293444,-0.48096013,-0.6076932
1379,-39.058968,-12.396058,-67.32381,4.922036,-4.843073,-5.642276,-2.4550672,3.4596353,1.7851009,0.7599196,0.6207972,0.19269939,0.7598483,-0.268904,-0.2202111,-0.549389
1486,-25.723005,-26.48214,-62.46593,6.1477594,-5.349155,-6.483951,-1.4908167,0.58291817,1.1371257,0.8059078,0.5348131,0.2539441,0.7850149,-0.30328938,-0.06948713,-0.5356666
1592,-14.655377,-39.384094,-58.341873,6.2075796,-5.0662036,-6.02752,-1.4123204,0.9068295,1.0552697,0.8531282,0.44374147,0.27434608,0.7944419,-0.35035557,0.058046427,-0.4926903
1699,-0.33652103,-55.971504,-53.93312,6.55095,-5.0871406,-6.25424,-2.4886649,0.64568454,1.6102408,0.9211021,0.25662205,0.29277292,0.7864216,-0.419405,0.21047965,-0.40167
1806,17.755022,-76.28018,-43.01975,7.63789,-4.3800616,-3.1980073,-3.3403637,-0.39202276,3.345098,0.9718477,-0.011632901,0.23532243,0.7579065,-0.52318746,0.33665442,-0.19625601
1912,35.997852,-96.16835,-45.935856,6.8165536,-3.050849,-3.3846474,-3.169169,0.7498371,3.9605448,0.9036958,-0.2628797,0.3379765,0.6747019,-0.57105666,0.4662188,-0.036215767
2019,45.003906,-108.03433,-51.6105,7.37767,-3.2285159,-3.258426,-4.04515,1.1768318,5.003444,0.8343966,-0.3793378,0.39985648,0.6234938,-0.57515097,0.5278725,0.042514514
2126,84.11595,112.69353,174.31035,6.481558,3.7166517,-0.54675996,1.8432859,0.09987646,3.7400224,0.39658362,-0.84845316,0.3504977,0.577348,-0.34009412,0.63569754,0.38326746
2232,61.920174,112.4163,159.40552,4.2574296,12.516854,0.5694918,2.0002782,0.5859725,3.5219436,0.101209454,-0.99171364,0.0791245,0.50590175,-0.15412088,0.7523256,0.39283124
2339,46.687607,116.07265,150.97119,0.9002995,15.6059885,1.457229,0.728915,0.7473936,2.4300218,-0.19194236,-0.9681825,-0.16056383,0.44725612,-0.007851221,0.8066505,0.38628387
2446,39.53706,118.9944,151.986,-2.879762,11.267801,2.9563322,0.030848695,1.0537425,1.3878858,-0.27941298,-0.919045,-0.27800137,0.3983627,0.029683137,0.8282703,0.3929305
2552,36.444958,128.00977,160.50638,-0.39182466,8.817552,3.205784,-0.07925977,0.23900104,-0.24297166,-0.23007062,-0.8889121,-0.39610958,0.34749398,0.0094563505,0.86463416,0.36272067
2659,33.460613,134.00223,165.55986,-0.32901308,9.6891365,2.4687946,0.91446525,1.2852604,0.06872234,-0.18815826,-0.8792335,-0.4376585,0.30991068,-0.00078807364,0.8886932,0.33790395
2766,30.720322,124.55336,158.3389,-0.60717875,10.345368,2.8342984,0.38163808,-0.019547688,0.27305678,-0.22521457,-0.87390476,-0.430777,0.3145927,0.039362382,0.86153466,0.3965351
2872,30.720322,124.55336,158.3389,-0.60717875,10.345368,2.8342984,0.38163808,-0.019547688,0.27305678,-0.22521457,-0.87390476,-0.430777,0.3145927,0.039362382,0.86153466,0.3965351
2979,30.086294,123.17271,158.4408,-1.0019945,9.626924,3.1902308,-0.36193764,-0.098502025,0.02351831,-0.22398792,-0.8702437,-0.43875423,0.310198,0.037541896,0.85750425,0.40872276
3086,35.985287,109.763504,149.44139,-1.0013963,10.39143,0.9954142,-0.93294394,-0.25167647,-0.02076942,-0.24179135,-0.91316587,-0.3281235,0.38791767,0.033597335,0.7972933,0.4612098
3192,35.49549,102.81755,149.76483,-2.1810577,9.485747,0.78544396,-1.7053831,0.36346483,0.0739147,-0.2451243,-0.93566227,-0.25387043,0.384947,0.010586086,0.7682432,0.5113767
3299,34.41747,96.79442,151.14915,-0.59641105,9.458827,-0.77527446,0.07452556,-0.6191119,0.046273045,-0.2549895,-0.9574918,-0.1348694,0.37225592,-0.012298858,0.7407071,0.5591308
3406,33.687504,95.70127,150.60771,-0.30329025,9.567103,-0.51924247,-0.020922136,-0.013591751,0.028405234,-0.25227097,-0.9596348,-0.12433998,0.3707421,-0.008070241,0.735707,0.56676304
3512,32.871273,94.90814,150.61772,-0.29072794,9.580861,-0.53359944,-0.02107485,-0.017867807,0.02687807,-0.24766727,-0.96426487,-0.09409641,0.3661136,-0.005855017,0.732049,0.5744831
3619,32.58737,94.65019,150.61934,-0.29850462,9.578468,-0.5515456,-0.022296581,-0.017256944,0.030848695,-0.23465459,-0.9669448,-0.09977455,0.36452085,-0.0050006416,0.73084164,0.57703555
3726,31.556643,93.74194,150.72328,-0.3194418,9.560522,-0.53659046,-0.025045475,-0.010231993,0.03145956,-0.2558037,-0.9598536,-0.11508932,0.3582659,-0.0023720218,0.72649866,0.58637834
3832,30.435997,92.75457,150.7482,-0.30209383,9.5665045,-0.5174479,-0.026267204,-0.02443461,0.03023783,-0.24587746,-0.9643754,-0.09759286,0.35195762,0.0011527333,0.72160673,0.59616125
3939,30.435997,92.75457,150.7482,-0.30209383,9.5665045,-0.5174479,-0.026267204,-0.02443461,0.03023783,-0.24587746,-0.9643754,-0.09759286,0.35195762,0.0011527333,0.72160673,0.59616125
4046,28.585997,91.24228,150.91368,-0.3475575,9.561121,-0.51625144,-0.024129178,-0.01740966,0.030695977,-0.24544042,-0.96189344,-0.12049909,0.34098876,0.006784278,0.71377355,0.6117254
4152,28.182766,90.92977,150.95311,-0.276371,9.592826,-0.5282156,-0.022449298,-0.01695151,0.03145956,-0.24861862,-0.96042866,-0.12556109,0.33859247,0.008079638,0.7120999,0.6149826
4259,26.545784,89.68997,151.14705,-0.24586251,9.5868435,-0.552742,-0.024281893,-0.017256944,0.025809057,-0.24102196,-0.96450835,-0.10785219,0.32872334,0.013346453,0.7052671,0.6279819
4366,26.12463,89.39643,151.19704,-0.24765714,9.57787,-0.50069815,-0.02275473,-0.017104227,0.027794369,-0.24470687,-0.9632092,-0.111115046,0.32619172,0.014807722,0.70359915,0.63113225
4472,24.426115,88.266846,151.41808,-0.3086741,9.580861,-0.4677968,-0.021533,-0.014660766,0.026267204,-0.23866215,-0.9639002,-0.118054286,0.31590554,0.020863127,0.69699067,0.6434069
4579,23.548378,87.70107,151.54973,-0.33379874,9.573085,-0.5186443,-0.02687807,-0.017867807,0.030543262,-0.25118434,-0.9599691,-0.123958565,0.31051195,0.024014514,0.6935683,0.64959115
4686,23.129936,87.460976,151.62225,-0.2871387,9.582656,-0.5240281,-0.018936822,-0.0154243475,0.031001411,-0.24558648,-0.9611346,-0.1261251,0.30788368,0.0255562,0.692082,0.6523627
4792,22.662792,87.20269,151.71399,-0.34576285,9.567103,-0.529412,-0.022449298,-0.012675454,0.031612277,-0.24697216,-0.96228313,-0.114087336,0.30488813,0.027251286,0.6904636,0.65540874
4899,22.186163,86.944275,151.78665,-0.30388847,9.555139,-0.5318048,-0.024740042,-0.018936822,0.030390546,-0.23847109,-0.96545196,-0.1050434,0.30195284,0.02913401,0.6888186,0.6584107
5006,22.186163,86.944275,151.78665,-0.30388847,9.555139,-0.5318048,-0.024740042,-0.018936822,0.030390546,-0.23847109,-0.96545196,-0.1050434,0.30195284,0.02913401,0.6888186,0.6584107
5112,22.186163,86.944275,151.78665,-0.30388847,9.555139,-0.5318048,-0.024740042,-0.018936822,0.030390546,-0.23847109,-0.96545196,-0.1050434,0.30195284,0.02913401,0.6888186,0.6584107
5219,17.424599,84.69569,152.72946,-0.29312077,9.546165,-0.54317075,-0.02321288,-0.019700404,0.028863383,-0.22190006,-0.96403885,-0.14625123,0.27137893,0.048175555,0.6734816,0.68589735
5326,15.939362,84.14532,153.05965,-0.30927232,9.563514,-0.5240281,-0.02275473,-0.02031127,0.0290161,-0.23966622,-0.96290374,-0.1240018,0.26158893,0.054491136,0.6693196,0.6932627
5432,14.407751,83.69733,153.43538,-0.29072794,9.598209,-0.5449653,-0.021533,-0.013439035,0.0290161,-0.2486209,-0.9601733,-0.12749451,0.25121623,0.061157648,0.66565436,0.70003885
5539,13.880268,83.551575,153.5818,-0.2781656,9.558728,-0.50428736,-0.0206167,-0.013591751,0.02977968,-0.25597286,-0.9573956,-0.13368452,0.24753177,0.063391455,0.6644297,0.7023124
5646,12.300923,83.193115,154.00452,-0.30448666,9.572487,-0.535394,-0.02855795,-0.019700404,0.028710665,-0.256508,-0.95900977,-0.12043226,0.23653576,0.07038549,0.66116923,0.70848566
5752,10.727426,83.01594,154.46057,-0.28175485,9.592228,-0.54795635,-0.018478675,-0.014049901,0.02855795,-0.2406673,-0.9627208,-0.12348255,0.22521655,0.07757185,0.6589753,0.7134505
5859,10.727426,83.01594,154.46057,-0.28175485,9.592228,-0.54795635,-0.018478675,-0.014049901,0.02855795,-0.2406673,-0.9627208,-0.12348255,0.22521655,0.07757185,0.6589753,0.7134505
5966,8.99826,82.98111,154.94717,-0.33619156,9.552148,-0.5282156,-0.026267204,-0.012675454,0.030543262,-0.2388223,-0.9633723,-0.12197423,0.2126956,0.08588497,0.6574781,0.7177095
6072,7.385782,82.99988,155.35904,-0.2865405,9.552746,-0.50668013,-0.029168814,-0.01863139,0.032223143,-0.23358086,-0.962697,-0.13658135,0.20117556,0.093967654,0.6563078,0.7210815
6179,7.385782,82.99988,155.35904,-0.2865405,9.552746,-0.50668013,-0.029168814,-0.01863139,0.032223143,-0.23358086,-0.962697,-0.13658135,0.20117556,0.093967654,0.6563078,0.7210815
6286,4.8502636,83.49539,156.09894,-0.26859432,9.570692,-0.52582276,-0.021838432,-0.01863139,0.028710665,-0.15677027,-0.9800296,-0.12233213,0.18191522,0.10686694,0.6573741,0.7234263
6392,4.411045,83.5674,156.23833,-0.30029923,9.5563345,-0.50069815,-0.024281893,-0.02611449,0.02977968,-0.24108204,-0.9623308,-0.12569365,0.17849505,0.1089968,0.65747124,0.72387207
6499,2.5372775,83.92147,157.13345,-0.2757728,9.582656,-0.55872405,-0.021991149,-0.016340645,0.025809057,-0.2586157,-0.95721954,-0.12980247,0.16187534,0.116369195,0.6584561,0.72573423
6606,2.153905,84.08079,157.3199,-0.27876383,9.601798,-0.51625144,-0.01817324,-0.017256944,0.032986723,-0.25872067,-0.9583137,-0.12123733,0.15834779,0.11796573,0.6592097,0.72557056
6712,0.52958083,84.941376,158.81474,-0.30687952,9.546764,-0.5491528,-0.02443461,-0.018936822,0.029932396,-0.2528171,-0.95875996,-0.12985684,0.13865924,0.12076877,0.6643262,0.7244717
6819,0.17491221,85.25707,159.58752,-0.3086741,9.543175,-0.50189453,-0.024281893,-0.012980886,0.027183503,-0.2565438,-0.9589815,-0.12058099,0.13138796,0.11889649,0.66672426,0.7239334
6926,0.060229454,85.53406,159.76659,-0.2973082,9.576076,-0.54376894,-0.024740042,-0.015577063,0.029321533,-0.23944788,-0.96516013,-0.10550172,0.12930241,0.11889239,0.6685293,0.72264385
7032,-0.045601413,86.006935,161.21526,-0.29012975,9.583853,-0.5198407,-0.02367103,-0.013744468,0.02855795,-0.24264622,-0.96479833,-0.1014247,0.11907842,0.111592755,0.67285156,0.7215526
7139,0.043128844,86.07018,162.15598,-0.2943172,9.562317,-0.48634118,-0.022449298,-0.0154243475,0.03176499,-0.24043913,-0.96405685,-0.113063745,0.113614544,0.10556876,0.6742314,0.7220519
7246,0.212062,85.70702,163.27809,-0.2961118,9.579067,-0.506082,-0.022449298,-0.0154243475,0.032375857,-0.2522361,-0.95756376,-0.13945833,0.10784356,0.09755396,0.67309374,0.7251192
7352,0.32843912,85.97301,164.03905,-0.33559337,9.585647,-0.5341976,-0.02367103,-0.020158552,0.028863383,-0.25082952,-0.960087,-0.12376396,0.103495196,0.09258508,0.6755112,0.72415566
7459,0.29943907,85.94575,164.80882,-0.2871387,9.571889,-0.49651068,-0.02367103,-0.012064589,0.02947425,-0.2567356,-0.9574863,-0.13155544,0.09847829,0.08820531,0.67592144,0.7250187
7566,0.3576855,86.07089,165.53497,-0.28115666,9.571889,-0.53300124,-0.02611449,-0.027183503,0.029168814,-0.24493127,-0.9622994,-0.1182731,0.09413432,0.08365417,0.6773047,0.72484416
7672,0.53157806,86.51957,166.73444,-0.3188436,9.596415,-0.5108676,-0.018936822,-0.0206167,0.027641652,-0.24779178,-0.9622736,-0.112377696,0.08727419,0.075800225,0.68110335,0.72300464
7779,0.65776205,86.85005,167.81671,-0.31226337,9.561719,-0.5318048,-0.018478675,-0.013591751,0.028099801,-0.25011545,-0.96206635,-0.1089522,0.08099374,0.06880026,0.6839545,0.7217429
7886,0.6258118,87.123795,168.67833,-0.276371,9.569495,-0.5096712,-0.02657264,-0.016187929,0.029626964,-0.25210527,-0.9627088,-0.0981568,0.0752213,0.06403715,0.68615717,0.7207145
7992,0.7704652,86.908264,169.33926,-0.28055844,9.573683,-0.48275197,-0.025809057,-0.011911872,0.02855795,-0.24707821,-0.96112746,-0.123232976,0.07204001,0.05903193,0.68523735,0.7223401
8099,0.8323486,87.039345,169.67776,-0.31585258,9.593424,-0.5694918,-0.022143863,-0.009010263,0.031306844,-0.25110137,-0.961979,-0.107445724,0.07021077,0.056697194,0.6862675,0.72172904
8206,1.0387977,87.07208,171.67041,-0.30927232,9.588638,-0.5072784,-0.0206167,-0.014813482,0.02855795,-0.24828313,-0.9621253,-0.11256306,0.05887459,0.04346875,0.6874408,0.72254366
8312,1.1284066,87.16407,172.39723,-0.3062813,9.574282,-0.5288138,-0.024281893,-0.016798794,0.033292156,-0.2562882,-0.96079177,-0.10580894,0.05479669,0.03858573,0.6883153,0.7223092
8419,1.2076912,87.409225,173.13976,-0.3391826,9.548558,-0.5270192,-0.02321288,-0.0096211275,0.03344487,-0.25796553,-0.961183,-0.09788242,0.050519,0.033732496,0.69012034,0.7211407
8526,1.3553929,87.58064,173.9163,-0.27696922,9.567103,-0.5174479,-0.024281893,-0.018325957,0.029321533,-0.2516591,-0.9620925,-0.10509836,0.046477474,0.028193587,0.69145095,0.7203753
8632,1.7250702,87.359184,175.14336,-0.3397808,9.567103,-0.5216353,-0.025198191,-0.010995574,0.032375857,-0.24363789,-0.9624694,-0.11955448,0.041025747,0.018381037,0.6903878,0.72204137
8739,1.7453549,87.64753,175.99629,-0.29491538,9.585647,-0.5180461,-0.020922136,-0.016035212,0.030695977,-0.2623159,-0.9589803,-0.1074575,0.035739288,0.013203806,0.69232345,0.72058076
8846,1.9826537,87.668495,177.21957,-0.3164508,9.597611,-0.51505506,-0.018784106,-0.018936822,0.027641652,-0.2395182,-0.96387154,-0.11654498,0.029477034,0.004323969,0.69256973,0.72073543
8952,2.088929,87.44111,177.97781,-0.29491538,9.543175,-0.53001016,-0.019394971,-0.01863139,0.028863383,-0.253966,-0.9580412,-0.13288471,0.025347352,-0.0009780882,0.6911518,0.72226435
9059,2.1201215,87.82366,179.16072,-0.27936202,9.560522,-0.55094737,-0.022602012,-0.014355333,0.027794369,-0.24983968,-0.96080106,-0.120172784,0.018106101,-0.0082488,0.69351095,0.72017133
9166,2.1201215,87.82366,179.16072,-0.28773692,9.580861,-0.535394,-0.023365596,-0.025045475,0.031154126,-0.25719592,-0.9580857,-0.12618247,0.0156298,-0.011094343,0.6934833,0.7202177
9272,2.1581945,87.82553,179.5914,-0.28773692,9.580861,-0.535394,-0.023365596,-0.025045475,0.031154126,-0.25719592,-0.9580857,-0.12618247,0.0156298,-0.011094343,0.6934833,0.7202177
9379,2.207932,88.17183,-179.53162,-0.30927232,9.588638,-0.5814559,-0.022296581,-0.01817324,0.026725354,-0.24658981,-0.96332985,-0.10577835,0.0104689915,-0.016682273,0.6955447,0.7182128
9486,2.454954,88.2749,-177.53731,-0.29312077,9.583853,-0.49710888,-0.021838432,-0.019394971,0.02641992,-0.2546256,-0.9587652,-0.1262341,-0.000504432,-0.030331722,0.6957311,0.71766144
9593,2.454954,88.2749,-177.53731,-0.29312077,9.583853,-0.49710888,-0.021838432,-0.019394971,0.02641992,-0.2546256,-0.9587652,-0.1262341,-0.000504432,-0.030331722,0.6957311,0.71766144
9699,2.454954,88.2749,-177.53731,-0.29312077,9.583853,-0.49710888,-0.021838432,-0.019394971,0.02641992,-0.2546256,-0.9587652,-0.1262341,-0.000504432,-0.030331722,0.6957311,0.71766144
9806,2.6976838,88.72372,-175.47466,-0.3272185,9.570692,-0.54675996,-0.021991149,-0.016493361,0.027030788,-0.24440011,-0.9608494,-0.13052587,-0.011772778,-0.04441304,0.69778436,0.7148327
9912,2.784087,88.863846,-174.34364,-0.29491538,9.602397,-0.50488555,-0.022449298,-0.019089539,0.027794369,-0.2480861,-0.96143067,-0.118761726,-0.018236982,-0.051857807,0.69814634,0.7138417
10019,2.8239264,89.0418,-173.63197,-0.2853441,9.600602,-0.5629115,-0.02351831,-0.024892759,0.02977968,-0.24852733,-0.9603835,-0.12608649,-0.022339027,-0.05647492,0.6988986,0.71263754
10126,2.881182,89.76672,-172.09343,-0.27996022,9.575478,-0.49531427,-0.021533,-0.0206167,0.027030788,-0.24649407,-0.96387136,-0.100958966,-0.031135354,-0.06640617,0.70253617,0.70785856
10232,3.0113728,89.82293,-171.36493,-0.29491538,9.557531,-0.54795635,-0.027183503,-0.018936822,0.024129178,-0.24866402,-0.96198064,-0.1129576,-0.034798868,-0.07168901,0.7023657,0.7073416
10339,3.0113728,89.82293,-171.36493,-0.29491538,9.557531,-0.54795635,-0.027183503,-0.018936822,0.024129178,-0.24866402,-0.96198064,-0.1129576,-0.034798868,-0.07168901,0.7023657,0.7073416
10446,3.0780253,90.08137,-169.85173,-0.2961118,9.603594,-0.57009,-0.020158552,-0.022143863,0.031306844,-0.24796018,-0.9619857,-0.11445183,-0.04354261,-0.08146493,0.7029029,0.70526236
10552,3.0780253,90.08137,-169.85173,-0.2961118,9.603594,-0.57009,-0.020158552,-0.022143863,0.031306844,-0.24796018,-0.9619857,-0.11445183,-0.04354261,-0.08146493,0.7029029,0.70526236
10659,3.171536,90.152176,-168.5898,-0.30329025,9.582656,-0.5425725,-0.02321288,-0.022602012,0.029626964,-0.25208578,-0.9597979,-0.12345311,-0.0506751,-0.08980385,0.7023256,0.70434797
10766,3.171536,90.152176,-168.5898,-0.30329025,9.582656,-0.5425725,-0.02321288,-0.022602012,0.029626964,-0.25208578,-0.9597979,-0.12345311,-0.0506751,-0.08980385,0.7023256,0.70434797
10872,3.4166975,90.21739,-167.4129,-0.31046873,9.5455675,-0.5395815,-0.021685716,-0.014202617,0.02855795,-0.24416783,-0.9623723,-0.11925444,-0.05634025,-0.09854045,0.70155793,0.7035141
10979,3.4166975,90.21739,-167.4129,-0.31046873,9.5455675,-0.5395815,-0.021685716,-0.014202617,0.02855795,-0.24416783,-0.9623723,-0.11925444,-0.05634025,-0.09854045,0.70155793,0.7035141
11086,3.4166975,90.21739,-167.4129,-0.31046873,9.5455675,-0.5395815,-0.021685716,-0.014202617,0.02855795,-0.24416783,-0.9623723,-0.11925444,-0.05634025,-0.09854045,0.70155793,0.7035141
11192,3.4166975,90.21739,-167.4129,-0.31046873,9.5455675,-0.5395815,-0.021685716,-0.014202617,0.02855795,-0.24416783,-0.9623723,-0.11925444,-0.05634025,-0.09854045,0.70155793,0.7035141
11299,3.52832,91.157295,-164.86256,-0.31226337,9.577272,-0.5742774,-0.025350908,-0.017562376,0.030390546,-0.24987005,-0.962148,-0.10879426,-0.07035181,-0.115387924,0.7048156,0.6963987
11406,3.466226,91.59332,-163.80481,-0.30568308,9.569495,-0.5216353,-0.024892759,-0.013591751,0.032070424,-0.26167452,-0.96014106,-0.09826295,-0.07669864,-0.121807925,0.70642763,0.69299364
11512,3.466226,91.59332,-163.80481,-0.30568308,9.569495,-0.5216353,-0.024892759,-0.013591751,0.032070424,-0.26167452,-0.96014106,-0.09826295,-0.07669864,-0.121807925,0.70642763,0.69299364
11619,3.5604537,91.5816,-162.70355,-0.3086741,9.568299,-0.5132604,-0.02947425,-0.020463986,0.028405234,-0.2550247,-0.9613615,-0.10366476,-0.0827829,-0.12914646,0.7050495,0.692368
11726,3.5604537,91.5816,-162.70355,-0.3086741,9.568299,-0.5132604,-0.02947425,-0.020463986,0.028405234,-0.2550247,-0.9613615,-0.10366476,-0.0827829,-0.12914646,0.7050495,0.692368
11832,3.566815,91.317566,-162.04529,-0.30149564,9.60479,-0.5306084,-0.024892759,-0.015882496,0.027641652,-0.25518647,-0.95897746,-0.12345885,-0.08702606,-0.13303229,0.70269275,0.6935069
11939,3.4781199,91.78095,-161.73737,-0.2961118,9.597611,-0.52342993,-0.028710665,-0.013133602,0.031306844,-0.2544518,-0.9624223,-0.09485544,-0.08889408,-0.13474947,0.70523274,0.690353
12046,3.6769574,91.4316,-161.17628,-0.43310088,9.57787,-0.5389833,-0.02611449,-0.018936822,0.028863383,-0.23994908,-0.9628648,-0.12375715,-0.09146305,-0.13910727,0.7022217,0.6922199
12152,3.5736098,92.05351,-160.4418,-0.30089745,9.574282,-0.54317075,-0.024129178,-0.01863139,0.02977968,-0.23847419,-0.96581,-0.10169136,-0.095759824,-0.14351033,0.70518535,0.6877125
12259,3.5736098,92.05351,-160.4418,-0.30089745,9.574282,-0.54317075,-0.024129178,-0.01863139,0.02977968,-0.23847419,-0.96581,-0.10169136,-0.095759824,-0.14351033,0.70518535,0.6877125
12366,3.5736098,92.05351,-160.4418,-0.30089745,9.574282,-0.54317075,-0.024129178,-0.01863139,0.02977968,-0.23847419,-0.96581,-0.10169136,-0.095759824,-0.14351033,0.70518535,0.6877125
12472,3.5736098,92.05351,-160.4418,-0.30089745,9.574282,-0.54317075,-0.024129178,-0.01863139,0.02977968,-0.23847419,-0.96581,-0.10169136,-0.095759824,-0.14351033,0.70518535,0.6877125
12579,3.6556609,92.34777,-158.83745,-0.2991028,9.579067,-0.5288138,-0.019242255,-0.018784106,0.027794369,-0.25029585,-0.9622094,-0.10726133,-0.104473986,-0.15412329,0.7047601,0.6845761
12686,3.6432037,92.11617,-158.51833,-0.3080759,9.588638,-0.52223355,-0.022143863,-0.016340645,0.030390546,-0.23820597,-0.9643403,-0.11535012,-0.10677255,-0.15579636,0.70296025,0.68569237
12792,3.6931932,92.1224,-158.35587,-0.31286153,9.562916,-0.5312066,-0.02031127,-0.020005837,0.02977968,-0.27519795,-0.9527031,-0.12892972,-0.107425876,-0.157094,0.7027092,0.6855515
12899,3.6245172,92.03612,-157.79431,-0.2889333,9.57129,-0.5030909,-0.02351831,-0.010537425,0.028863383,-0.25625455,-0.9584492,-0.1253344,-0.111330405,-0.16004664,0.7015086,0.6854753
13006,3.5441391,92.45057,-157.22284,-0.2889333,9.5766735,-0.53300124,-0.021227568,-0.010537425,0.029168814,-0.25065827,-0.9614176,-0.11334278,-0.1146545,-0.16348468,0.7032856,0.6822877
13112,3.531343,92.5215,-156.92816,-0.2853441,9.598209,-0.53240305,-0.026267204,-0.01863139,0.030390546,-0.24504974,-0.963226,-0.11020999,-0.11638581,-0.1652896,0.70330274,0.6815416
13219,3.5544415,92.49146,-156.79762,-0.2991028,9.572487,-0.51625144,-0.01771509,-0.0154243475,0.0290161,-0.24872585,-0.9618286,-0.11411033,-0.11706224,-0.16619554,0.7029029,0.6816179
13326,3.6004553,92.51185,-156.67075,-0.31106693,9.583853,-0.55692947,-0.023823744,-0.0206167,0.030085113,-0.25127563,-0.960628,-0.11855131,-0.11750149,-0.16726464,0.7027747,0.681413
13432,3.6004553,92.51185,-156.67075,-0.31106693,9.583853,-0.55692947,-0.023823744,-0.0206167,0.030085113,-0.25127563,-0.960628,-0.11855131,-0.11750149,-0.16726464,0.7027747,0.681413
13539,3.5423594,92.88611,-155.90515,-0.3188436,9.552148,-0.529412,-0.02107485,-0.01695151,0.028710665,-0.24587937,-0.9615113,-0.12263504,-0.12185051,-0.17201473,0.70394474,0.67825156
13646,3.5423594,92.88611,-155.90515,-0.3188436,9.552148,-0.529412,-0.02107485,-0.01695151,0.028710665,-0.24587937,-0.9615113,-0.12263504,-0.12185051,-0.17201473,0.70394474,0.67825156
13752,3.4908628,93.18472,-155.5717,-0.29312077,9.559326,-0.50069815,-0.025350908,-0.015882496,0.028252516,-0.24187994,-0.9659555,-0.0917827,-0.1236906,-0.17408496,0.7052805,0.6759989
13859,3.455627,92.9201,-155.43855,-0.2883351,9.563514,-0.49232325,-0.02611449,-0.009010263,0.031154126,-0.24721621,-0.96042514,-0.12832631,-0.12509857,-0.17441092,0.70356673,0.67744005
13966,3.455627,92.9201,-155.43855,-0.2883351,9.563514,-0.49232325,-0.02611449,-0.009010263,0.031154126,-0.24721621,-0.96042514,-0.12832631,-0.12509857,-0.17441092,0.70356673,0.67744005
14072,3.5336833,93.07895,-155.0393,-0.30269206,9.5868435,-0.57547385,-0.024129178,-0.019394971,0.03176499,-0.25245473,-0.96117413,-0.111404255,-0.12672722,-0.17749174,0.70377666,0.6761178
14179,3.4664268,93.24916,-154.98776,-0.31046873,9.602995,-0.53240305,-0.02443461,-0.019089539,0.03313944,-0.24471334,-0.96403533,-0.10368828,-0.12718606,-0.17760627,0.7048001,0.67493445
14286,3.5475285,93.10511,-154.8099,-0.28235307,9.594022,-0.53240305,-0.018478675,-0.015118915,0.03023783,-0.24944103,-0.9620473,-0.110653445,-0.12795351,-0.17900996,0.70355344,0.6757188
14392,3.5732067,93.114784,-154.6939,-0.31345975,9.582058,-0.50668013,-0.028405234,-0.018325957,0.027030788,-0.25186142,-0.96161866,-0.10888219,-0.12846267,-0.17988218,0.70339024,0.6755605
14499,3.523238,93.02573,-154.52711,-0.31106693,9.568299,-0.5455635,-0.022296581,-0.018936822,0.0290161,-0.24048105,-0.9635011,-0.1176204,-0.12989679,-0.18051463,0.70267826,0.6758584
14606,3.5041068,93.01989,-154.5018,-0.29132614,9.555139,-0.4881358,-0.023823744,-0.02076942,0.029626964,-0.24516268,-0.96366996,-0.10599761,-0.13017409,-0.18055199,0.70263296,0.67584217
14712,3.4259222,93.74708,-154.61931,-0.29012975,9.580861,-0.54376894,-0.02657264,-0.0154243475,0.029321533,-0.24926117,-0.9647418,-0.08451088,-0.12882592,-0.18019797,0.7072103,0.6714061
14819,3.4259222,93.74708,-154.61931,-0.29012975,9.580861,-0.54376894,-0.02657264,-0.0154243475,0.029321533,-0.24926117,-0.9647418,-0.08451088,-0.12882592,-0.18019797,0.7072103,0.6714061
14926,3.2175977,93.61233,-154.58838,-0.18245272,9.528219,-0.6227321,-0.028710665,-0.014049901,0.033292156,-0.25538516,-0.961357,-0.10281591,-0.13051946,-0.17903209,0.70668274,0.67194617
15032,3.2175977,93.61233,-154.58838,-0.18245272,9.528219,-0.6227321,-0.028710665,-0.014049901,0.033292156,-0.25538516,-0.961357,-0.10281591,-0.13051946,-0.17903209,0.70668274,0.67194617
15139,3.2175977,93.61233,-154.58838,-0.18245272,9.528219,-0.6227321,-0.028710665,-0.014049901,0.033292156,-0.25538516,-0.961357,-0.10281591,-0.13051946,-0.17903209,0.70668274,0.67194617
15246,2.9276152,95.36958,-177.37111,-0.90269226,10.19462,-0.10348957,1.0241156,-0.16890423,0.02687807,-0.23917827,-0.97062606,-0.02605512,0.0034467713,-0.034149934,0.73862207,0.6732454
15352,2.9276152,95.36958,-177.37111,-0.90269226,10.19462,-0.10348957,1.0241156,-0.16890423,0.02687807,-0.23917827,-0.97062606,-0.02605512,0.0034467713,-0.034149934,0.73862207,0.6732454
15459,2.9276152,95.36958,-177.37111,-0.90269226,10.19462,-0.10348957,1.0241156,-0.16890423,0.02687807,-0.23917827,-0.97062606,-0.02605512,0.0034467713,-0.034149934,0.73862207,0.6732454
15566,2.9276152,95.36958,-177.37111,-0.90269226,10.19462,-0.10348957,1.0241156,-0.16890423,0.02687807,-0.23917827,-0.97062606,-0.02605512,0.0034467713,-0.034149934,0.73862207,0.6732454
15672,2.9276152,95.36958,-177.37111,-0.90269226,10.19462,-0.10348957,1.0241156,-0.16890423,0.02687807,-0.23917827,-0.97062606,-0.02605512,0.0034467713,-0.034149934,0.73862207,0.6732454
15779,-12.264169,-178.48149,-148.93785,3.0675986,0.60777694,8.514859,4.0301833,1.4796683,-2.6494753,0.2724038,-0.11124212,-0.9557308,-0.09938349,-0.26756933,0.95750946,-0.041294094
15886,-23.069147,-169.72191,-138.93974,3.4672,-3.638885,7.311867,1.8067867,1.5131131,-1.8968893,0.42918554,0.23674388,-0.8716376,-0.15572779,-0.35900933,0.90760505,-0.15203378
15992,-42.742325,-161.45584,-129.8733,4.685745,-7.5074806,3.3523443,1.762499,2.49569,-1.97508,0.5153766,0.5850483,-0.62618315,-0.2622209,-0.44252327,0.8076596,-0.2882695
16099,-57.555195,-163.04033,-126.220505,4.84068,-6.79442,3.604189,-0.07925977,3.8525743,-1.6296358,0.5527669,0.68213636,-0.47868434,-0.36621007,-0.4553972,0.74107426,-0.3306245
16206,-78.5268,-179.36249,-109.752335,3.5856447,-8.919246,1.9513469,-0.16126841,4.1861067,-2.017077,0.5320452,0.7632952,-0.36648107,-0.5151582,-0.44833112,0.63122725,-0.3676458
16312,-78.5268,-179.36249,-109.752335,3.5856447,-8.919246,1.9513469,-0.16126841,4.1861067,-2.017077,0.5320452,0.7632952,-0.36648107,-0.5151582,-0.44833112,0.63122725,-0.3676458
16419,-63.10369,24.733366,32.771095,3.6538398,-8.836095,2.0853448,-1.2070698,4.1308236,-1.0387764,0.5610927,0.79481137,-0.23119228,-0.7669725,-0.31928298,0.43888408,-0.3423337
16526,-31.396267,4.3260484,39.322376,4.50389,-9.399007,1.1587243,-1.3397801,1.7756326,-0.552833,0.66307557,0.74526525,-0.07007503,-0.902492,-0.12518688,0.24238779,-0.33329368
16632,-31.396267,4.3260484,39.322376,4.50389,-9.399007,1.1587243,-1.3397801,1.7756326,-0.552833,0.66307557,0.74526525,-0.07007503,-0.902492,-0.12518688,0.24238779,-0.33329368
16739,-21.281528,-15.306945,49.50132,4.776074,-5.0279183,3.368496,-0.98181313,2.5302038,0.43172902,0.8689344,0.49475303,-0.013132874,-0.8948673,0.042248335,0.22099476,-0.38547236
16846,-14.299781,-15.836374,49.062515,4.6881375,-9.039486,2.736791,-0.21899518,3.4315355,0.8501717,0.875529,0.47562173,0.085046455,-0.90117353,0.07316551,0.16890237,-0.3924348
16952,-14.299781,-15.836374,49.062515,4.6881375,-9.039486,2.736791,-0.21899518,3.4315355,0.8501717,0.875529,0.47562173,0.085046455,-0.90117353,0.07316551,0.16890237,-0.3924348
17059,14.536053,-30.007235,58.591652,9.376275,-1.6510476,2.158924,-2.462856,3.5517232,3.0582967,0.8975429,0.24058068,0.36951,-0.8195803,0.28375044,0.01908741,-0.49740273
17166,79.776566,-58.615337,36.149143,2.5938196,-0.79501534,-7.77428,-1.9482019,3.6451855,4.1263947,0.24006608,0.1195835,0.9633629,-0.5386756,0.5305542,-0.41508585,-0.5060085
17272,44.79181,-58.110012,42.442413,4.089932,-8.201399,-5.241478,1.0520626,-0.98181313,-0.19700405,0.2664694,0.45326567,0.8506141,-0.686437,0.53912646,-0.14794086,-0.465038
17379,47.397987,-55.95296,43.022823,8.3688965,-3.351148,-8.84447,0.87720245,0.45081854,1.3095423,0.28748798,0.40240136,0.8691512,-0.68319815,0.5297883,-0.1727272,-0.47194272
17486,36.00025,-6.765495,84.38185,4.9872403,-0.44745782,-7.680362,2.3426683,-2.4485006,1.397507,0.5868019,-0.09902353,0.8036528,-0.691174,0.24875492,-0.19086781,-0.651129
17592,16.206568,12.01238,90.05633,9.517452,3.711866,-2.8313074,2.9866729,-4.7013717,1.0435106,0.75081897,-0.39044818,0.5327486,-0.706296,0.0259599,-0.17236248,-0.6861218
17699,-19.845652,22.051271,93.05612,6.245865,4.852046,3.3409784,0.16936238,-4.674035,0.68019843,0.6683328,-0.7438016,-0.009509542,-0.64128125,-0.2523577,-0.020346064,-0.7243342
17806,-45.273785,8.744528,86.213036,4.8586264,5.8073807,2.8995028,-5.004208,-4.6680794,0.022602012,0.58885044,-0.80483735,-0.07410789,-0.6518282,-0.3136227,0.23210098,-0.65029985
17912,-51.23008,9.649715,84.51903,1.1419746,7.2861447,5.0614176,1.5609134,-1.9260582,0.54229563,0.6168111,-0.78703225,0.011151741,-0.6405497,-0.3458346,0.2678267,-0.63116026
18019,-42.118137,-5.895778,78.94814,1.3010972,8.45803,5.764908,-3.5477526,4.463287,1.0823004,0.6870413,-0.6755255,0.2676558,-0.73115146,-0.19108807,0.30751485,-0.5782193
18126,-41.127644,-12.46714,50.087383,3.0071797,7.6091757,-1.3716855,-3.5428658,0.26816985,-4.92113,0.5206255,-0.32259205,0.79049575,-0.8593867,-0.05570318,0.35938123,-0.35943955
18232,-56.23442,-9.072279,2.0253894,5.022535,-1.948954,-2.891128,-5.004208,-1.0410671,-5.004208,0.6312097,0.39940625,0.66486764,-0.87974405,0.061440233,0.47096008,0.021727141
18339,-61.697205,13.319073,-52.30745,4.7174497,-7.335796,-2.2474587,-1.6946929,-1.1304061,-3.1693215,0.23489332,0.9554218,0.17886959,-0.79163665,0.13512604,0.5010508,0.32249105
18446,-64.383835,28.4843,-70.40399,0.8805587,-7.152745,-2.4598215,-0.3355177,-2.6791022,-3.4263432,0.150033,0.9809194,0.12364146,-0.7458094,0.12754932,0.54196763,0.3657467
18552,-61.53095,72.280914,-127.77894,-2.1984057,-11.873185,-0.62572306,-0.48319438,-2.321899,-0.42195517,-0.14971077,0.98760074,0.047237664,-0.5762912,0.14790593,0.63685507,0.49033448
18659,-62.013676,78.40011,-142.2178,0.029312076,-9.285946,0.8901299,0.72219545,-0.11636983,0.827417,-0.17699492,0.982019,-0.06566137,-0.523098,0.20231017,0.6417881,0.5230172
18766,-63.38887,85.206276,-146.1917,-0.25603202,-9.736993,0.6939185,-0.15302174,0.025350908,0.03023783,-0.14331503,0.98967695,0.000611323,-0.52238387,0.20253529,0.6635231,0.49581414
18872,-63.38887,85.206276,-146.1917,-0.25603202,-9.736993,0.6939185,-0.15302174,0.025350908,0.03023783,-0.14331503,0.98967695,0.000611323,-0.52238387,0.20253529,0.6635231,0.49581414
18979,-63.866135,75.2909,-135.96255,-0.31525436,-10.050453,0.17467603,-0.019547688,-0.020005837,0.029626964,-0.14390406,0.98956925,0.006657823,-0.5514234,0.19392914,0.637551,0.501849
19086,-64.60091,74.651245,-135.83107,-0.15373884,-10.03789,0.1896312,-0.021838432,-0.01695151,0.031306844,-0.135742,0.9906004,0.016880149,-0.55294394,0.20105463,0.6346737,0.5010183
19192,-65.0983,74.195724,-135.71938,-0.27397817,-10.044471,0.23030917,-0.022449298,-0.019547688,0.029321533,-0.14163956,0.9897897,0.015955033,-0.55397826,0.20587021,0.6326759,0.5004465
19299,-65.84155,73.50517,-135.53784,-0.31405795,-10.029515,0.21894327,-0.022296581,-0.020463986,0.02855795,-0.14397165,0.9895619,0.0062747933,-0.55548453,0.2130477,0.6296905,0.4995373
19406,-66.85765,72.49555,-135.20967,-0.16749758,-10.07139,0.24945174,-0.024129178,-0.01771509,0.028099801,-0.14952491,0.9887163,0.009078445,-0.5575966,0.22276896,0.6255143,0.49818853
19512,-67.63168,71.75815,-134.9805,-0.32841492,-10.046864,0.20578274,-0.019089539,-0.017562376,0.031001411,-0.14911075,0.98878515,0.008360939,-0.55903995,0.23015693,0.62246674,0.4970285
19619,-68.15421,71.203636,-134.75877,-0.2871387,-10.035498,0.17228322,-0.02367103,-0.017562376,0.030085113,-0.15638937,0.9874533,0.021871977,-0.5601225,0.2350685,0.62031835,0.49619627
19726,-68.15421,71.203636,-134.75877,-0.2871387,-10.035498,0.17228322,-0.02367103,-0.017562376,0.030085113,-0.15638937,0.9874533,0.021871977,-0.5601225,0.2350685,0.62031835,0.49619627
19832,-68.15421,71.203636,-134.75877,-0.2871387,-10.035498,0.17228322,-0.02367103,-0.017562376,0.030085113,-0.15638937,0.9874533,0.021871977,-0.5601225,0.2350685,0.62031835,0.49619627
19939,-68.15421,71.203636,-134.75877,-0.2871387,-10.035498,0.17228322,-0.02367103,-0.017562376,0.030085113,-0.15638937,0.9874533,0.021871977,-0.5601225,0.2350685,0.62031835,0.49619627
20046,-71.89592,66.529,-132.37546,-0.26679972,-10.068398,0.20638095,-0.021838432,-0.018020526,0.029168814,-0.14241783,0.9897155,-0.013428557,-0.56788296,0.26979688,0.6044231,0.48927626
20152,-72.70073,65.22641,-131.56485,-0.26799613,-10.058828,0.18185452,-0.024587328,-0.014202617,0.028099801,-0.14018926,0.9901049,-0.0062679374,-0.56963086,0.27726427,0.60068464,0.48767117
20259,-73.50747,63.87433,-130.703,-0.2973082,-10.059426,0.21236299,-0.021838432,-0.016798794,0.03023783,-0.12927021,0.9916058,0.0026608098,-0.5712598,0.2847708,0.5969935,0.48596975
20366,-74.31491,62.456654,-129.75356,-0.26620153,-10.050453,0.19920248,-0.020922136,-0.010537425,0.029932396,-0.13589522,0.9907038,-0.0062006754,-0.5728661,0.29220182,0.59338903,0.4840785
20472,-75.12059,60.85336,-128.61456,-0.2979064,-10.048059,0.18005991,-0.023060162,-0.018325957,0.027641652,-0.1323091,0.991205,-0.0026400553,-0.5745427,0.29962242,0.58965516,0.48211402
20579,-75.674,59.610264,-127.68971,-0.35473597,-10.039087,0.16689937,-0.021991149,-0.010995574,0.031001411,-0.14314878,0.989701,-0.0006123268,-0.5757577,0.3047342,0.58698386,0.48071834
20686,-76.23975,58.336903,-126.73506,-0.27936202,-10.0474615,0.18843476,-0.022602012,-0.016646078,0.028863383,-0.14926398,0.9887724,0.0070298025,-0.57688123,0.30995852,0.58437717,0.47920465
20792,-77.34684,55.43484,-124.44314,-0.2979064,-10.044471,0.20937198,-0.021380283,-0.016646078,0.031154126,-0.14693417,0.9890345,-0.014871848,-0.5792504,0.32019264,0.57908446,0.47603238
20899,-78.45798,52.104748,-121.73157,-0.29970104,-10.072586,0.21894327,-0.022602012,-0.022143863,0.028405234,-0.14906864,0.98882633,-0.0010277352,-0.58142596,0.33064646,0.5737808,0.47264412
21006,-78.45798,52.104748,-121.73157,-0.29970104,-10.072586,0.21894327,-0.022602012,-0.022143863,0.028405234,-0.14906864,0.98882633,-0.0010277352,-0.58142596,0.33064646,0.5737808,0.47264412
21112,-78.45798,52.104748,-121.73157,-0.29970104,-10.072586,0.21894327,-0.022602012,-0.022143863,0.028405234,-0.14906864,0.98882633,-0.0010277352,-0.58142596,0.33064646,0.5737808,0.47264412
21219,-80.54744,42.82305,-113.69833,-0.3164508,-10.03131,0.21714865,-0.023823744,-0.01771509,0.031154126,-0.1370091,0.99056506,0.0030517809,-0.58600825,0.35155424,0.56230015,0.46564198
21326,-81.49279,36.439842,-107.928505,-0.30568308,-10.051051,0.192024,-0.02565634,-0.014660766,0.029932396,-0.13152236,0.99114865,0.018060092,-0.5883761,0.36200044,0.55628294,0.46186423
21432,-81.49279,36.439842,-107.928505,-0.30568308,-10.051051,0.192024,-0.02565634,-0.014660766,0.029932396,-0.13152236,0.99114865,0.018060092,-0.5883761,0.36200044,0.55628294,0.46186423
21539,-81.49279,36.439842,-107.928505,-0.30568308,-10.051051,0.192024,-0.02565634,-0.014660766,0.029932396,-0.13152236,0.99114865,0.018060092,-0.5883761,0.36200044,0.55628294,0.46186423
21646,-81.49279,36.439842,-107.928505,-0.30568308,-10.051051,0.192024,-0.02565634,-0.014660766,0.029932396,-0.13152236,0.99114865,0.018060092,-0.5883761,0.36200044,0.55628294,0.46186423
21752,-83.296974,13.0835085,-86.02396,-0.29072794,-10.063015,0.2129612,-0.02321288,-0.017256944,0.027030788,-0.15213884,0.988346,0.005104327,-0.59447634,0.38812962,0.5408408,0.4510482
21859,-83.40994,10.077467,-83.163185,-0.3164508,-10.045667,0.22253248,-0.024281893,-0.019547688,0.03191771,-0.1477219,0.98901373,-0.0054845763,-0.5950733,0.39079243,0.53924406,0.4498721
21966,-83.670616,-2.7125795,-70.95959,-0.2991028,-10.035498,0.2129612,-0.022907447,-0.015118915,0.03023783,-0.14111315,0.989762,0.021408008,-0.5973884,0.4013849,0.5327569,0.44518238
22072,-83.66274,-9.411791,-64.54511,-0.1597209,-10.0474615,0.19441684,-0.022143863,-0.015577063,0.030695977,-0.15302101,0.98820764,0.005500504,-0.59866494,0.40659696,0.529369,0.44277266
22179,-83.66274,-9.411791,-64.54511,-0.1597209,-10.0474615,0.19441684,-0.022143863,-0.015577063,0.030695977,-0.15302101,0.98820764,0.005500504,-0.59866494,0.40659696,0.529369,0.44277266
22286,-83.64433,-12.770072,-61.32701,-0.30149564,-10.080363,0.21894327,-0.021533,-0.02275473,0.030543262,-0.14199689,0.98976684,0.014090647,-0.59922385,0.40925327,0.5277602,0.44148803
22392,-81.87638,-46.39192,-29.33836,-0.2961118,-10.057034,0.20638095,-0.018325957,-0.011453724,0.030390546,-0.13775638,0.99016875,0.02427098,-0.6063613,0.44036186,0.50729614,0.42550912
22499,-80.84832,-54.091007,-22.165663,-0.2859423,-10.044471,0.1914258,-0.02351831,-0.025198191,0.028099801,-0.13392928,0.9909557,0.008351679,-0.60869515,0.45070773,0.50022155,0.41967988
22606,-80.26977,-57.200672,-19.315908,-0.2847459,-10.03131,0.21595223,-0.02351831,-0.012370021,0.02733622,-0.13698351,0.99053425,0.008798859,-0.60996145,0.45573562,0.49651682,0.4168011
22712,-79.367226,-61.451607,-15.447117,-0.30329025,-10.038489,0.18484555,-0.024281893,-0.0206167,0.030543262,-0.14448887,0.9893106,0.01968422,-0.6117021,0.46340558,0.4910862,0.4122016
22819,-78.071236,-66.05798,-11.338977,-0.29491538,-10.069596,0.19621144,-0.023823744,-0.018936822,0.02641992,-0.13588184,0.99028945,0.029375669,-0.61412865,0.4734728,0.4836153,0.40593812
22926,-77.73187,-67.055786,-10.466706,-0.30149564,-10.025328,0.18843476,-0.022143863,-0.014660766,0.030543262,-0.13316078,0.9909519,0.01681006,-0.6147484,0.47598314,0.4816873,0.40435347
23032,-77.73187,-67.055786,-10.466706,-0.30149564,-10.025328,0.18843476,-0.022143863,-0.014660766,0.030543262,-0.13316078,0.9909519,0.01681006,-0.6147484,0.47598314,0.4816873,0.40435347
23139,-75.29384,-72.93167,-5.440245,-0.30269206,-10.048059,0.20398813,-0.024129178,-0.016493361,0.02977968,-0.15049809,0.98859066,0.0062277885,-0.61882085,0.49337608,0.4683207,0.3928314
23246,-75.29384,-72.93167,-5.440245,-0.30269206,-10.048059,0.20398813,-0.024129178,-0.016493361,0.02977968,-0.15049809,0.98859066,0.0062277885,-0.61882085,0.49337608,0.4683207,0.3928314
23352,-73.46384,-76.16155,-2.7949665,-0.317049,-10.0474615,0.17587246,-0.020158552,-0.016646078,0.031612277,-0.13282438,0.9910466,0.013576426,-0.6216653,0.5056414,0.45857203,0.38414937
23459,-72.331184,-77.76625,-1.5111957,-0.30448666,-10.028918,0.19920248,-0.020005837,-0.015577063,0.02947425,-0.15113014,0.9885027,-0.0047025355,-0.6234968,0.5127925,0.45264375,0.37869406
23566,-70.409615,-80.094055,0.29012826,-0.2991028,-10.070193,0.21954148,-0.01985312,-0.024281893,0.028252516,-0.15041883,0.98855394,0.011630644,-0.6264381,0.52461404,0.44265065,0.3693451
23672,-70.409615,-80.094055,0.29012826,-0.2991028,-10.070193,0.21954148,-0.01985312,-0.024281893,0.028252516,-0.15041883,0.98855394,0.011630644,-0.6264381,0.52461404,0.44265065,0.3693451
23779,-70.409615,-80.094055,0.29012826,-0.2991028,-10.070193,0.21954148,-0.01985312,-0.024281893,0.028252516,-0.15041883,0.98855394,0.011630644,-0.6264381,0.52461404,0.44265065,0.3693451
23886,-67.671684,-82.68368,2.1697297,-0.25722843,-10.03789,0.22911276,-0.026267204,-0.02275473,0.029168814,-0.13755292,0.99046844,0.0071702935,-0.63047874,0.54066354,0.42836025,0.35593113
23992,-65.660866,-84.221375,3.2359526,-0.29072794,-10.048059,0.1698904,-0.019089539,-0.021685716,0.02641992,-0.15061003,0.9884077,0.019155754,-0.63337785,0.5518808,0.4179469,0.34580418
24099,-64.852264,-84.74939,3.5807676,-0.2883351,-10.058229,0.21415763,-0.02031127,-0.018325957,0.027794369,-0.14852102,0.988829,0.012596183,-0.6345559,0.5562382,0.41370866,0.3417354
24206,-63.22998,-85.74337,4.2141314,-0.30329025,-10.039685,0.16031912,-0.021685716,-0.01328632,0.025961772,-0.14412545,0.9895422,-0.0058434913,-0.63680345,0.56486964,0.4052242,0.33346215
24312,-62.815468,-85.985886,4.374157,-0.2865405,-10.046864,0.20877378,-0.022602012,-0.021838432,0.03252857,-0.13367452,0.9910023,-0.0067501836,-0.6373744,0.567025,0.40310305,0.3312769
24420,-60.756985,-87.07809,4.993641,-0.29970104,-10.043275,0.16151553,-0.02443461,-0.019242255,0.03023783,-0.14341244,0.98929757,0.026891619,-0.63996035,0.57773787,0.39213255,0.320783
24526,-60.344753,-87.271095,5.0997386,-0.31106693,-10.054641,0.19441684,-0.022449298,-0.0154243475,0.027488936,-0.14722124,0.9889214,0.018983372,-0.64049965,0.5798025,0.38993686,0.3186511
24632,-58.23726,-88.23791,5.642096,-0.2656033,-10.031908,0.15912269,-0.025198191,-0.01572978,0.02733622,-0.13556106,0.9902873,0.030890485,-0.64307666,0.5902362,0.37885076,0.3074828
24739,-56.558792,-88.90323,5.9664607,-0.30388847,-10.073784,0.20937198,-0.02443461,-0.011453724,0.028710665,-0.12895648,0.9911607,0.031156408,-0.6450589,0.5982867,0.3698363,0.29861885
24846,-55.278233,-89.34278,6.1730337,-0.33619156,-10.036096,0.18005991,-0.022143863,-0.01695151,0.029932396,-0.14581268,0.9891924,0.015396903,-0.6466459,0.604147,0.36295953,0.2917461
24953,-54.425262,-89.6188,6.3056836,-0.28115666,-10.040283,0.15912269,-0.02107485,-0.014813482,0.03176499,-0.13865046,0.9902589,0.012781933,-0.6476997,0.6079535,0.35840932,0.28708947
25059,-54.425262,-89.6188,6.3056836,-0.28115666,-10.040283,0.15912269,-0.02107485,-0.014813482,0.03176499,-0.13865046,0.9902589,0.012781933,-0.6476997,0.6079535,0.35840932,0.28708947
25166,-52.30606,-90.24445,6.580618,-0.2853441,-10.053445,0.17587246,-0.024587328,-0.018936822,0.02855795,-0.13710946,0.990511,0.009429746,-0.65024024,0.617167,0.3470004,0.27546918
25272,-50.167156,-90.817894,6.845184,-0.32183465,-10.058229,0.23808585,-0.024892759,-0.022143863,0.032070424,-0.14743467,0.98898494,0.013106156,-0.65272206,0.6260559,0.33559763,0.26340503
25379,-50.167156,-90.817894,6.845184,-0.32183465,-10.058229,0.23808585,-0.024892759,-0.022143863,0.032070424,-0.14743467,0.98898494,0.013106156,-0.65272206,0.6260559,0.33559763,0.26340503
25486,-48.014854,-91.317375,7.051148,-0.28953153,-10.058229,0.22791636,-0.024281893,-0.02611449,0.031154126,-0.14350538,0.9895332,0.015174283,-0.65515363,0.6345968,0.32400078,0.25116554
25592,-46.723,-91.55758,7.142146,-0.28773692,-10.029515,0.17647067,-0.021991149,-0.01038471,0.030085113,-0.12761067,0.9917954,0.007571338,-0.6567131,0.63939923,0.3169944,0.24374382
25699,-46.723,-91.55758,7.142146,-0.28773692,-10.029515,0.17647067,-0.021991149,-0.01038471,0.030085113,-0.12761067,0.9917954,0.007571338,-0.6567131,0.63939923,0.3169944,0.24374382
25806,-46.723,-91.55758,7.142146,-0.28773692,-10.029515,0.17647067,-0.021991149,-0.01038471,0.030085113,-0.12761067,0.9917954,0.007571338,-0.6567131,0.63939923,0.3169944,0.24374382
25912,-46.723,-91.55758,7.142146,-0.28773692,-10.029515,0.17647067,-0.021991149,-0.01038471,0.030085113,-0.12761067,0.9917954,0.007571338,-0.6567131,0.63939923,0.3169944,0.24374382
26019,-43.273952,-92.12784,7.3463836,-0.31286153,-10.03789,0.16809578,-0.024740042,-0.01817324,0.029626964,-0.1458576,0.98928,0.0071174363,-0.66065145,0.65160847,0.29819965,0.22365837
26126,-43.273952,-92.12784,7.3463836,-0.31286153,-10.03789,0.16809578,-0.024740042,-0.01817324,0.029626964,-0.1458576,0.98928,0.0071174363,-0.66065145,0.65160847,0.29819965,0.22365837
26232,-41.09891,-92.4583,7.48751,-0.34815568,-10.046864,0.20338991,-0.020922136,-0.020922136,0.02855795,-0.15516424,0.98784655,0.009126438,-0.66292596,0.658866,0.28645575,0.21063694
26339,-40.668324,-92.51145,7.498517,-0.30388847,-10.030712,0.19621144,-0.023060162,-0.014355333,0.02733622,-0.15313317,0.98787516,0.025551708,-0.6633796,0.6602512,0.28405398,0.20810859
26446,-37.625904,-92.84863,7.605197,-0.26919255,-10.057034,0.16749758,-0.022296581,-0.01160644,0.027030788,-0.14185187,0.9897035,0.019106608,-0.6665439,0.66950923,0.26727888,0.1898384
26552,-35.4668,-93.02871,7.6602244,-0.2871387,-10.059426,0.20398813,-0.02565634,-0.013897184,0.028252516,-0.1399619,0.9900908,0.011440501,-0.6687716,0.67552674,0.25530368,0.17671499
26659,-35.4668,-93.02871,7.6602244,-0.2871387,-10.059426,0.20398813,-0.02565634,-0.013897184,0.028252516,-0.1399619,0.9900908,0.011440501,-0.6687716,0.67552674,0.25530368,0.17671499
26766,-34.594307,-93.098,7.6877146,-0.15373884,-10.070193,0.19322042,-0.02076942,-0.015271631,0.0290161,-0.14878984,0.9883732,0.031304017,-0.66962445,0.6778643,0.2504881,0.17134406
26872,-30.664799,-93.34557,7.794742,-0.28295127,-10.055239,0.21774687,-0.025350908,-0.017256944,0.029626964,-0.15197971,0.98831964,0.011247818,-0.67328566,0.68760127,0.2286992,0.14692727
26979,-28.928959,-93.38662,7.818126,-0.27996022,-10.042078,0.16331014,-0.022143863,-0.013439035,0.02855795,-0.15441728,0.98789734,0.014635081,-0.67500824,0.6913077,0.21896277,0.13606203
27086,-28.497494,-93.38691,7.8225684,-0.31046873,-10.046864,0.18903299,-0.022602012,-0.017104227,0.029626964,-0.13852756,0.99028045,0.012437699,-0.6754696,0.6921494,0.21653947,0.13334455
27192,-28.497494,-93.38691,7.8225684,-0.31046873,-10.046864,0.18903299,-0.022602012,-0.017104227,0.029626964,-0.13852756,0.99028045,0.012437699,-0.6754696,0.6921494,0.21653947,0.13334455
27299,-25.055855,-93.33219,7.8517666,-0.32123643,-10.08156,0.23449661,-0.02107485,-0.022296581,0.025961772,-0.15643223,0.98761034,0.012440096,-0.67914,0.6981906,0.19712286,0.111540854
27406,-24.622135,-93.32893,7.8573055,-0.32362923,-10.041479,0.20877378,-0.02321288,-0.017256944,0.029168814,-0.14104982,0.9896796,0.025283838,-0.6795383,0.69892627,0.19466962,0.10878194
27512,-22.491264,-93.23127,7.8739195,-0.31585258,-10.033106,0.20338991,-0.024587328,-0.013133602,0.029932396,-0.15446514,0.9876143,0.027542857,-0.68184227,0.70192915,0.1825786,0.09513993
27619,-21.621363,-93.21851,7.8963103,-0.31286153,-10.042078,0.15493526,-0.02443461,-0.019242255,0.027641652,-0.13781053,0.9899751,0.030943962,-0.68256134,0.7032228,0.17769241,0.089515895
27726,-19.897213,-93.12316,7.922468,-0.30329025,-10.054042,0.20757735,-0.01817324,-0.020005837,0.02947425,-0.1476797,0.98847973,0.03314413,-0.68428373,0.7052806,0.16791163,0.078362726
27833,-18.613472,-93.036575,7.938669,-0.3098705,-10.065409,0.17706887,-0.024740042,-0.020463986,0.03191771,-0.15880002,0.9871417,0.018269628,-0.6855589,0.7066219,0.16058253,0.07005486
27939,-17.772905,-92.95455,7.958508,-0.3098705,-10.065409,0.21894327,-0.021533,-0.019394971,0.0290161,-0.16108152,0.9868545,0.013072584,-0.68650883,0.70728827,0.15583737,0.06452642
28046,-17.772905,-92.95455,7.958508,-0.3098705,-10.065409,0.21894327,-0.021533,-0.019394971,0.0290161,-0.16108152,0.9868545,0.013072584,-0.68650883,0.70728827,0.15583737,0.06452642
28152,-14.844957,-92.67546,8.028189,-0.29012975,-10.054042,0.20757735,-0.024587328,-0.021991149,0.02977968,-0.1409099,0.98991907,0.014306108,-0.6894835,0.70935684,0.13918763,0.045301005
28259,-14.028759,-92.55909,8.021701,-0.30149564,-10.043873,0.18903299,-0.025350908,-0.013439035,0.029168814,-0.15067813,0.9885824,0.0010110768,-0.6904608,0.709651,0.1343669,0.040061068
28366,-12.374172,-92.33653,8.060408,-0.26679972,-10.039685,0.19680965,-0.022449298,-0.020463986,0.03145956,-0.14357589,0.9893296,0.024758935,-0.6922706,0.71015567,0.124859154,0.029164312
28472,-11.109015,-92.19628,8.105713,-0.30269206,-10.046266,0.22671993,-0.024281893,-0.02107485,0.03176499,-0.14632219,0.98909444,0.016792309,-0.6933725,0.7106083,0.117636114,0.020788582
28579,-9.884155,-91.99726,8.140629,-0.28354946,-10.060622,0.2021935,-0.0206167,-0.01740966,0.027183503,-0.14466417,0.98902935,0.02988594,-0.69474584,0.7105935,0.11056259,0.012687181
28686,-8.67962,-91.750626,8.197023,-0.30209383,-10.058828,0.19980069,-0.02397646,-0.019089539,0.025809057,-0.13861577,0.99001116,0.02576028,-0.6963328,0.71017236,0.10370654,0.004562742
28792,-7.055498,-91.452255,8.268671,-0.2979064,-10.024731,0.18664016,-0.024129178,-0.01863139,0.02977968,-0.15413119,0.9878794,0.01838067,-0.69812924,0.70969784,0.09436611,-0.006290557
28899,-7.055498,-91.452255,8.268671,-0.2979064,-10.024731,0.18664016,-0.024129178,-0.01863139,0.02977968,-0.15413119,0.9878794,0.01838067,-0.69812924,0.70969784,0.09436611,-0.006290557
29006,-6.7003746,-91.32438,8.284782,-0.31585258,-10.123434,0.19262221,-0.02107485,-0.01817324,0.030390546,-0.15169582,0.98837847,0.009817807,-0.6988896,0.7091938,0.09231198,-0.008710274
29112,-6.7003746,-91.32438,8.284782,-0.31585258,-10.123434,0.19262221,-0.02107485,-0.01817324,0.030390546,-0.15169582,0.98837847,0.009817807,-0.6988896,0.7091938,0.09231198,-0.008710274
29219,-6.7003746,-91.32438,8.284782,-0.31585258,-10.123434,0.19262221,-0.02107485,-0.01817324,0.030390546,-0.15169582,0.98837847,0.009817807,-0.6988896,0.7091938,0.09231198,-0.008710274
29326,-6.7003746,-91.32438,8.284782,-0.31585258,-10.123434,0.19262221,-0.02107485,-0.01817324,0.030390546,-0.15169582,0.98837847,0.009817807,-0.6988896,0.7091938,0.09231198,-0.008710274
29432,-4.938147,-90.1976,8.452868,-0.33499515,-10.054641,0.20458633,-0.021533,-0.012217305,0.03023783,-0.14662339,0.98909914,0.013583141,-0.7055621,0.7035019,0.08248088,-0.021542586
29540,-4.5816336,-90.30739,8.699635,-0.29012975,-10.075578,0.21535403,-0.01863139,-0.020158552,0.02733622,-0.12757254,0.9915731,0.022540268,-0.70476365,0.7042558,0.08183883,-0.025185918
29646,-4.978199,-90.08918,8.754781,-0.30149564,-10.044471,0.20997018,-0.022449298,-0.014049901,0.030085113,-0.14979005,0.98867196,0.009524358,-0.7061762,0.7025848,0.0845571,-0.023234025
29752,-4.978199,-90.08918,8.754781,-0.30149564,-10.044471,0.20997018,-0.022449298,-0.014049901,0.030085113,-0.14979005,0.98867196,0.009524358,-0.7061762,0.7025848,0.0845571,-0.023234025
29859,-4.688628,-90.38552,9.00397,-0.31345975,-10.06481,0.2117648,-0.02107485,-0.01863139,0.027030788,-0.14156641,0.9897031,0.02113505,-0.7042395,0.70443803,0.08438069,-0.026338529
29966,-5.2740984,-90.57942,9.101073,-0.3272185,-10.018748,0.14177473,-0.021838432,-0.014355333,0.02977968,-0.15872404,0.98666936,0.035919778,-0.7031561,0.70511466,0.08859023,-0.023162957
30072,-5.1827664,-90.80183,9.094276,-0.2536392,-10.034302,0.2129612,-0.025198191,-0.018936822,0.03268129,-0.15076917,0.9879633,0.034599155,-0.70176816,0.70655346,0.08803789,-0.023516508
30179,-5.0649686,-90.69542,9.15506,-0.31764722,-10.049257,0.18843476,-0.027794369,-0.017104227,0.031001411,-0.15201642,0.9879593,0.02876512,-0.7023852,0.7059449,0.0876736,-0.02470164
30286,-4.310058,-90.28912,9.241637,-0.31046873,-10.046266,0.17587246,-0.02321288,-0.016798794,0.031306844,-0.12928712,0.99137855,0.021292325,-0.70467824,0.7039481,0.08350476,-0.03021117
30392,-4.4044356,-90.57514,9.327831,-0.2865405,-10.046864,0.16749758,-0.021227568,-0.012370021,0.028252516,-0.13611925,0.9903969,0.024196666,-0.7029218,0.7055724,0.084685996,-0.029946646
30499,-4.609973,-90.53452,9.373262,-0.30508488,-10.038489,0.18604195,-0.027030788,-0.016035212,0.03283401,-0.14164855,0.9898948,0.00662752,-0.70321447,0.7051366,0.08620809,-0.028982418
30606,-4.569689,-90.204666,9.422977,-0.29850462,-10.0678005,0.18484555,-0.023823744,-0.014202617,0.029626964,-0.14017014,0.9899964,0.016109878,-0.705218,0.7031023,0.086183056,-0.029785214
30712,-4.569689,-90.204666,9.422977,-0.29850462,-10.0678005,0.18484555,-0.023823744,-0.014202617,0.029626964,-0.14017014,0.9899964,0.016109878,-0.705218,0.7031023,0.086183056,-0.029785214
30819,-4.8191485,-90.361046,9.606021,-0.2973082,-10.055239,0.19262221,-0.019700404,-0.020158552,0.02947425,-0.14589511,0.98912686,0.018510062,-0.70427614,0.70373404,0.08887066,-0.029249763
30926,-4.4472594,-90.13345,9.691845,-0.2973082,-10.0163555,0.19501504,-0.02275473,-0.019700404,0.029168814,-0.13605054,0.99061435,0.013170801,-0.7055486,0.70255315,0.08706416,-0.032249935
31032,-4.855307,-90.671745,9.821074,-0.3080759,-10.028918,0.19680965,-0.02657264,-0.020463986,0.02977968,-0.14407752,0.989051,0.0319337,-0.7023197,0.7054444,0.09049374,-0.030102558
31139,-4.5811715,-90.48614,9.866562,-0.29850462,-10.076774,0.17527425,-0.023060162,-0.021991149,0.027947085,-0.13873722,0.9900263,0.02449336,-0.7033725,0.70448434,0.089053705,-0.032225337
31246,-5.0245442,-90.68456,9.939829,-0.3062813,-10.07139,0.17886348,-0.020158552,-0.017867807,0.027794369,-0.15142761,0.98800695,0.0301987,-0.70225555,0.70529383,0.092257485,-0.029770697
31352,-5.0070095,-90.444786,9.988029,-0.29312077,-10.055837,0.18664016,-0.020005837,-0.020158552,0.0290161,-0.15323886,0.9880524,0.01643778,-0.7037124,0.7037981,0.092384174,-0.030368196
31459,-5.16528,-90.50742,10.130221,-0.30568308,-10.042676,0.192024,-0.027641652,-0.019089539,0.031001411,-0.15701863,0.98741406,0.018938767,-0.70333296,0.70393836,0.094238184,-0.030210437
31566,-5.4889436,-90.3624,10.2163105,-0.29970104,-10.052846,0.1806581,-0.02565634,-0.018020526,0.030848695,-0.1620347,0.9866345,0.01723896,-0.7042864,0.7027069,0.09670059,-0.02885708
31672,-5.0129824,-90.16967,10.298508,-0.28354946,-10.013364,0.20997018,-0.020158552,-0.015271631,0.03176499,-0.14792326,0.9888755,0.015619768,-0.7053163,0.70184904,0.09424944,-0.032464154
31779,-4.928406,-90.410675,10.369083,-0.2853441,-10.051051,0.18723837,-0.019547688,-0.015882496,0.030695977,-0.1457424,0.9891073,0.020637296,-0.7037938,0.7033422,0.094235316,-0.03322251
31886,-4.6225085,-90.33605,10.493286,-0.2883351,-10.08156,0.2009971,-0.02367103,-0.022449298,0.030543262,-0.14067389,0.98986834,0.019274632,-0.70412034,0.7030317,0.09311012,-0.03593789
31992,-5.069219,-90.40717,10.567825,-0.33080772,-10.063614,0.23988046,-0.02733622,-0.02031127,0.028099801,-0.15657151,0.98723215,0.029292697,-0.70379925,0.7030387,0.09631178,-0.033575058
32099,-5.2210364,-90.53561,10.634401,-0.29670998,-10.043873,0.20638095,-0.024892759,-0.011759155,0.03023783,-0.14486672,0.98944026,-0.0046453783,-0.7030367,0.7036426,0.097681805,-0.03293546
32206,-4.971914,-90.41008,10.749122,-0.2979064,-10.052247,0.21415763,-0.021380283,-0.01985312,0.027183503,-0.15268606,0.98818827,0.013074231,-0.70369714,0.7029855,0.09683221,-0.035287853
32312,-4.8835945,-90.578354,10.81001,-0.31465617,-10.062417,0.22731815,-0.02321288,-0.02031127,0.028710665,-0.16470085,0.9859903,0.02639567,-0.70261693,0.704041,0.09672089,-0.036065962
32419,-5.344936,-90.77338,10.897513,-0.3302095,-10.050453,0.18005991,-0.029168814,-0.019394971,0.030543262,-0.1572616,0.98720825,0.026242739,-0.7015364,0.70476615,0.10012041,-0.033574782
32526,-5.5496664,-90.70057,10.931368,-0.30149564,-10.036695,0.19860429,-0.02076942,-0.01817324,0.02977968,-0.16421236,0.98597795,0.029695548,-0.7020356,0.7041111,0.101549834,-0.032576278
32632,-5.0019517,-90.40188,11.041003,-0.2955136,-10.058828,0.2129612,-0.021991149,-0.011759155,0.028710665,-0.1523316,0.9883284,0.001438717,-0.70366514,0.70266044,0.09880274,-0.03690147
32739,-5.0785165,-90.38105,11.130225,-0.33619156,-10.039087,0.21535403,-0.022907447,-0.018784106,0.02977968,-0.15354525,0.98799044,0.017284011,-0.70378923,0.702389,0.099809185,-0.036994062
32846,-4.7034016,-90.344124,11.25063,-0.29850462,-10.046864,0.22671993,-0.0206167,-0.014660766,0.030085113,-0.14539531,0.9892257,0.017110156,-0.7038469,0.7023815,0.09825016,-0.04008395
32952,-4.713784,-90.21422,11.339296,-0.3098705,-10.038489,0.19322042,-0.024587328,-0.017867807,0.02947425,-0.14904036,0.9888051,0.007173118,-0.70461506,0.70149803,0.0988108,-0.04067643
33059,-5.0113945,-90.55919,11.476771,-0.29192436,-10.057034,0.2129612,-0.02641992,-0.020158552,0.0290161,-0.15179907,0.9881799,0.021390222,-0.7025583,0.70323646,0.10158571,-0.03937929
33166,-5.3124113,-90.31841,11.588917,-0.29670998,-10.052846,0.20937198,-0.02275473,-0.019547688,0.02687807,-0.15716502,0.9874106,0.017871957,-0.70410013,0.7013888,0.10402198,-0.038421985
33272,-5.0853643,-90.64692,11.656037,-0.33738798,-10.063015,0.19920248,-0.022602012,-0.020463986,0.025045475,-0.15490101,0.98754305,0.027647944,-0.70198405,0.7035481,0.1031657,-0.03994147
33379,-5.3344436,-90.894875,11.763517,-0.28414768,-10.07139,0.19381861,-0.028252516,-0.015118915,0.028710665,-0.15439244,0.9874115,0.034372885,-0.7005121,0.70474213,0.105421275,-0.03882882
33486,-5.0800123,-90.73198,11.7820425,-0.44386858,-10.033106,0.16869399,-0.025045475,-0.01572978,0.02977968,-0.14962387,0.9887356,0.0038253826,-0.70141536,0.70395994,0.103937,-0.040669363
33592,-5.1199017,-90.68848,11.934847,-0.2847459,-10.040283,0.16091733,-0.021227568,-0.023823744,0.031306844,-0.15365504,0.98811513,0.00431882,-0.7016426,0.70351803,0.105101764,-0.041397292
33699,-5.1094203,-90.508095,11.951008,-0.30687952,-10.055837,0.20697914,-0.02031127,-0.01450805,0.03191771,-0.15616207,0.9875977,0.016251983,-0.70273936,0.7024074,0.10507186,-0.041726634
33806,-4.9979534,-90.19627,12.091106,-0.42951167,-10.06481,0.18604195,-0.019394971,-0.012675454,0.02977968,-0.15880312,0.9873068,-0.00262321,-0.70455384,0.70046616,0.1051353,-0.04356155
33912,-5.061053,-90.05132,12.132433,-0.30029923,-10.046864,0.18783657,-0.019394971,-0.02107485,0.03145956,-0.15366624,0.9881135,0.004284856,-0.7054477,0.6994783,0.10571723,-0.04356013
34019,-4.649738,-90.11795,12.331396,-0.2961118,-10.049854,0.19621144,-0.019089539,-0.01985312,0.032070424,-0.14596778,0.9892318,0.010667432,-0.7047984,0.70008284,0.1044506,-0.047258005
34126,-4.649738,-90.11795,12.331396,-0.2961118,-10.049854,0.19621144,-0.019089539,-0.01985312,0.032070424,-0.14596778,0.9892318,0.010667432,-0.7047984,0.70008284,0.1044506,-0.047258005
34232,-4.649738,-90.11795,12.331396,-0.2961118,-10.049854,0.19621144,-0.019089539,-0.01985312,0.032070424,-0.14596778,0.9892318,0.010667432,-0.7047984,0.70008284,0.1044506,-0.047258005
34339,-4.6001725,-90.052185,12.672251,-0.32004002,-10.073784,0.2117648,-0.02443461,-0.025503622,0.029168814,-0.1422336,0.9898102,0.006730949,-0.7050347,0.69941056,0.10620196,-0.04972059
34446,-4.6001725,-90.052185,12.672251,-0.32004002,-10.073784,0.2117648,-0.02443461,-0.025503622,0.029168814,-0.1422336,0.9898102,0.006730949,-0.7050347,0.69941056,0.10620196,-0.04972059
34552,-5.180569,-90.16492,12.777456,-0.2859423,-10.061221,0.17288142,-0.02443461,-0.02947425,0.030848695,-0.15468761,0.9879316,0.007926578,-0.7045475,0.6994563,0.11042734,-0.046684682
34659,-4.7791953,-90.15127,12.873246,-0.29850462,-10.049257,0.21236299,-0.028099801,-0.019700404,0.028863383,-0.14365305,0.98961705,0.0046845567,-0.70442057,0.69966394,0.10856289,-0.04976093
34766,-4.869892,-90.42501,12.929673,-0.28235307,-10.06481,0.17288142,-0.020922136,-0.012064589,0.030543262,-0.14530241,0.9892926,0.013686997,-0.7027626,0.70120484,0.10957767,-0.049287185
34872,-5.260528,-90.5876,13.234766,-0.2991028,-10.042078,0.18903299,-0.023823744,-0.01282817,0.030543262,-0.15784298,0.9871752,0.023889545,-0.7018073,0.70152444,0.113884114,-0.04858336
34979,-5.2135253,-90.44499,13.346181,-0.31106693,-10.048059,0.19920248,-0.02687807,-0.016493361,0.031001411,-0.16287403,0.98641694,0.021299263,-0.70261145,0.7005862,0.114219636,-0.049698655
35086,-5.236175,-90.42316,13.431172,-0.3367898,-10.057631,0.17647067,-0.021380283,-0.015271631,0.03023783,-0.16099872,0.9868256,0.015959462,-0.70271796,0.7003448,0.114867054,-0.050101705
35192,-5.378959,-90.15186,13.570814,-0.28175485,-10.045667,0.192024,-0.02611449,-0.013591751,0.028252516,-0.16211466,0.98675656,0.005506076,-0.7043758,0.6983944,0.11646742,-0.05035189
35299,-5.0788474,-90.52884,13.620689,-0.30448666,-10.049854,0.2009971,-0.024892759,-0.013439035,0.032223143,-0.15768084,0.9872542,0.021584202,-0.70191574,0.7009596,0.115119055,-0.05212938
35406,-4.8354383,-90.38678,13.653907,-0.45822552,-10.060622,0.16929218,-0.02565634,-0.019394971,0.029626964,-0.15289828,0.9882308,0.0046818573,-0.7026543,0.7002981,0.1137801,-0.053978436
35512,-4.8354383,-90.38678,13.653907,-0.45822552,-10.060622,0.16929218,-0.02565634,-0.019394971,0.029626964,-0.15289828,0.9882308,0.0046818573,-0.7026543,0.7002981,0.1137801,-0.053978436
35619,-4.689278,-90.64666,13.709613,-0.31345975,-10.074381,0.20937198,-0.022143863,-0.021227568,0.03176499,-0.14544877,0.9890428,0.025277924,-0.70096695,0.7019787,0.1133583,-0.054965228
35726,-5.401933,-90.324745,13.973712,-0.31166515,-10.042676,0.21056838,-0.027794369,-0.012980886,0.02947425,-0.16250008,0.9867049,-0.0026842786,-0.7031513,0.6990184,0.119141124,-0.05250688
35832,-5.401933,-90.324745,13.973712,-0.31166515,-10.042676,0.21056838,-0.027794369,-0.012980886,0.02947425,-0.16250008,0.9867049,-0.0026842786,-0.7031513,0.6990184,0.119141124,-0.05250688
35939,-5.401933,-90.324745,13.973712,-0.31166515,-10.042676,0.21056838,-0.027794369,-0.012980886,0.02947425,-0.16250008,0.9867049,-0.0026842786,-0.7031513,0.6990184,0.119141124,-0.05250688
36046,-4.6158714,-90.11389,14.420131,-0.31166515,-10.032507,0.20398813,-0.02351831,-0.020005837,0.02855795,-0.14413746,0.98955417,-0.0026270293,-0.7038268,0.69807243,0.11698539,-0.06030883
36152,-4.6158714,-90.11389,14.420131,-0.31166515,-10.032507,0.20398813,-0.02351831,-0.020005837,0.02855795,-0.14413746,0.98955417,-0.0026270293,-0.7038268,0.69807243,0.11698539,-0.06030883
36259,-4.621435,-90.41819,14.689102,-0.30029923,-10.050453,0.18604195,-0.024281893,-0.018936822,0.030695977,-0.1425363,0.9896187,0.018390426,-0.70183086,0.6996563,0.11882143,-0.061611157
36366,-4.603268,-90.04079,14.762003,-0.30508488,-10.059426,0.18364912,-0.024740042,-0.019242255,0.02977968,-0.14350483,0.98964614,-0.0026154993,-0.70408183,0.6972843,0.118951015,-0.0625618
36472,-5.034141,-90.15276,14.956872,-0.28414768,-10.058828,0.2027917,-0.01985312,-0.018478675,0.03344487,-0.15439506,0.9879834,0.0071375105,-0.70352846,0.69731236,0.12281461,-0.060989745
36579,-4.8687882,-89.99658,15.08861,-0.32183465,-10.049854,0.18903299,-0.024587328,-0.01740966,0.0290161,-0.14357929,0.98963714,0.0018218673,-0.7043173,0.69638884,0.122527026,-0.062983245
36686,-5.321167,-89.95046,15.20876,-0.32422745,-10.019346,0.17168503,-0.023060162,-0.016035212,0.029932396,-0.16118413,0.98692334,-0.0014336624,-0.7047769,0.69548434,0.12598045,-0.060991872
36792,-5.317962,-89.94996,15.394898,-0.27158538,-10.041479,0.17467603,-0.0206167,-0.018784106,0.028099801,-0.16212897,0.98676044,-0.004240362,-0.7046782,0.69527924,0.12709028,-0.062156852
36899,-4.7717133,-89.81361,15.485243,-0.27936202,-10.030114,0.22133608,-0.024892759,-0.022449298,0.03023783,-0.14744645,0.9890695,-0.001024999,-0.70514995,0.6949411,0.12424146,-0.066215575
37006,-4.4241652,-90.08449,15.704221,-0.2973082,-10.058229,0.1806581,-0.025809057,-0.012675454,0.029626964,-0.14120284,0.98996574,0.0054361764,-0.7031702,0.69674486,0.12361912,-0.06940203
37112,-4.4241652,-90.08449,15.704221,-0.2973082,-10.058229,0.1806581,-0.025809057,-0.012675454,0.029626964,-0.14120284,0.98996574,0.0054361764,-0.7031702,0.69674486,0.12361912,-0.06940203
37219,-4.7889004,-90.43014,15.980934,-0.30089745,-10.060622,0.1794617,-0.02351831,-0.021991149,0.029626964,-0.15026808,0.9885351,0.0147607755,-0.70112115,0.6981603,0.12772115,-0.068473674
37326,-4.7618833,-90.103,16.050539,-0.28773692,-10.070193,0.22911276,-0.026725354,-0.024892759,0.031001411,-0.15013106,0.9886651,-0.0014179122,-0.70305306,0.6961084,0.12778416,-0.06943114
37433,-4.606878,-90.234116,16.210287,-0.27996022,-10.051649,0.20578274,-0.02275473,-0.016646078,0.03176499,-0.14198239,0.98980725,0.011071914,-0.7020624,0.69690675,0.12789625,-0.07121737
37539,-4.555405,-90.15585,16.297043,-0.32243285,-10.054042,0.18783657,-0.021838432,-0.017256944,0.029932396,-0.14092575,0.9900049,0.0055036866,-0.7024515,0.6963876,0.12806287,-0.07215296
37646,-4.2862716,-90.43595,16.512222,-0.45343986,-10.041479,0.19920248,-0.025350908,-0.020005837,0.030543262,-0.14610332,0.9890937,0.018640034,-0.70043504,0.6981615,0.12792271,-0.07481315
37752,-4.6256337,-90.50204,16.55161,-0.2973082,-10.055239,0.2021935,-0.0206167,-0.014813482,0.02977968,-0.16261707,0.98652214,0.018160366,-0.70022887,0.69814056,0.1302558,-0.07288853
37859,-4.790288,-90.16132,16.74996,-0.2871387,-10.07139,0.21236299,-0.022296581,-0.020463986,0.028710665,-0.14973925,0.98867005,0.010472578,-0.7022805,0.6956403,0.13223998,-0.0734792
37966,-4.9083157,-90.24664,16.95126,-0.3164508,-10.043275,0.18604195,-0.022143863,-0.02275473,0.028405234,-0.15306093,0.9881612,0.010475909,-0.70170945,0.695792,0.13423099,-0.07388758
38072,-4.4015145,-90.06976,17.065605,-0.3086741,-10.038489,0.19262221,-0.02076942,-0.021991149,0.026267204,-0.13239256,0.99105465,0.016820043,-0.7023699,0.6951629,0.13174053,-0.07790678
38179,-4.9083405,-90.06638,17.256275,-0.2853441,-10.058229,0.21415763,-0.024740042,-0.015271631,0.028863383,-0.1508867,0.9885359,0.005481948,-0.7026034,0.69432783,0.13596335,-0.07596892
38286,-4.4176054,-89.890396,17.417273,-0.30747768,-10.046864,0.19680965,-0.02641992,-0.017104227,0.028099801,-0.13578402,0.9907063,-0.007981725,-0.70322543,0.6936366,0.13384537,-0.08017278
38392,-4.617638,-90.27392,17.568274,-0.2955136,-10.052846,0.21954148,-0.026267204,-0.012370021,0.028405234,-0.14240146,0.98971385,0.0137212165,-0.7009351,0.6955729,0.13623852,-0.07941867
38499,-4.228526,-89.76054,17.68454,-0.31465617,-10.049854,0.21236299,-0.020922136,-0.01863139,0.031154126,-0.13622575,0.9906703,-0.0038548696,-0.7036865,0.6927484,0.1342223,-0.083122596
38606,-4.6143885,-90.01156,17.846502,-0.29970104,-10.07498,0.20697914,-0.021838432,-0.012980886,0.028863383,-0.15376776,0.98810697,0.00020473269,-0.70232785,0.6936378,0.1377212,-0.08145579
38712,-4.8792033,-90.13524,18.038391,-0.2991028,-10.056435,0.20578274,-0.02397646,-0.0096211275,0.032375857,-0.14862987,0.98888516,0.0039154384,-0.7016311,0.69384116,0.14057161,-0.080856815
38819,-5.072189,-90.317375,18.191874,-0.2979064,-10.028319,0.18305092,-0.02367103,-0.01328632,0.027488936,-0.15958238,0.98715323,0.007868428,-0.7005565,0.6945276,0.14279395,-0.08038532
38926,-4.9964685,-90.17035,18.365847,-0.30687952,-10.060024,0.2117648,-0.022907447,-0.02321288,0.027030788,-0.15675798,0.9876193,0.005926457,-0.70126957,0.69350547,0.14328676,-0.08209809
39032,-4.8083224,-90.2822,18.535305,-0.29132614,-10.0349,0.20458633,-0.022449298,-0.007941248,0.030848695,-0.15057945,0.98857504,0.0067225494,-0.7003319,0.6942124,0.1432593,-0.0841497
39139,-5.1792965,-90.48217,18.753405,-0.28295127,-10.052247,0.17886348,-0.023060162,-0.022602012,0.029321533,-0.16198146,0.98673934,0.010365835,-0.69923466,0.69468933,0.14695986,-0.08294797
39246,-4.917679,-90.53826,18.888073,-0.28953153,-10.025927,0.16929218,-0.02076942,-0.021991149,0.03023783,-0.15323621,0.9881301,0.010841211,-0.6986006,0.69519216,0.14624543,-0.085307315
39352,-4.7856417,-90.166504,18.983454,-0.30089745,-10.057034,0.20638095,-0.026267204,-0.01160644,0.030390546,-0.15040497,0.98859644,-0.0074483436,-0.70068014,0.6929685,0.14574859,-0.087174356
39459,-4.9105873,-89.822105,19.161453,-0.2973082,-10.026525,0.20997018,-0.025503622,-0.016035212,0.029321533,-0.15289107,0.98818415,-0.010788078,-0.70271856,0.6904721,0.1473142,-0.0879397
39566,-4.7162023,-89.58517,19.349213,-0.2847459,-10.049854,0.18843476,-0.027488936,-0.02321288,0.0290161,-0.14631777,0.9890822,-0.01753452,-0.70384836,0.68902725,0.14708363,-0.09058334
39672,-4.712666,-89.69603,19.636728,-0.27158538,-10.008579,0.16211373,-0.019394971,-0.02031127,0.030848695,-0.15102588,0.9884491,-0.01263362,-0.7029494,0.6893411,0.14887984,-0.09222661
39779,-4.4398913,-90.15298,19.796211,-0.32422745,-10.051649,0.17048861,-0.022449298,-0.016493361,0.029932396,-0.14657691,0.9891918,0.0038507185,-0.69984347,0.6922853,0.14856651,-0.09427718
39886,-4.7644114,-90.4264,19.965473,-0.28295127,-10.034302,0.18125631,-0.025350908,-0.01863139,0.03023783,-0.15445793,0.98794544,0.010323106,-0.6983194,0.69330764,0.15176518,-0.0929618
39992,-4.87563,-90.18072,20.089025,-0.2889333,-10.030712,0.19561325,-0.018936822,-0.016187929,0.031154126,-0.15445292,0.98797685,0.006785736,-0.6997946,0.6914972,0.15298042,-0.093360186
40099,-4.6211452,-89.88407,20.166351,-0.27996022,-10.04507,0.18005991,-0.019700404,-0.019700404,0.02611449,-0.13920842,0.9902202,-0.009220426,-0.70130867,0.689919,0.15166862,-0.09578389
40206,-4.446643,-90.247894,20.42505,-0.28235307,-10.043275,0.18843476,-0.025198191,-0.017562376,0.030848695,-0.14647608,0.9892064,0.003934786,-0.6987484,0.69202965,0.15248509,-0.09794866
40313,-4.88572,-90.392715,19.577477,0.18903299,-10.409975,0.28055844,-0.24694228,0.48243085,0.005650503,-0.13790067,0.990445,0.0014334349,-0.6989307,0.69345427,0.1501193,-0.08989589
40419,-5.9240413,-92.925514,17.828201,-0.061615184,-9.894919,1.2149557,-0.9211848,-0.00992656,-0.27015516,-0.15018518,0.9878672,-0.039533447,-0.6854015,0.7096987,0.14734435,-0.069586
40526,-3.6224194,-99.90996,16.971855,-1.1724831,-10.532606,2.4335005,-1.0676397,-0.1516473,0.14385878,-0.13137466,0.96456283,-0.22882144,-0.6395982,0.753779,0.13302402,-0.07096431
40632,-1.0929403,-106.20677,14.163594,0.29491538,-9.827322,3.2685955,-1.1184943,0.5561928,0.8249735,-0.09750554,0.9323452,-0.3481739,-0.5967061,0.79287714,0.10427239,-0.06644515
40739,2.8643737,-116.582756,9.850808,1.7060825,-8.75115,4.81735,-1.301143,0.52687126,0.72509706,-0.020471735,0.8296326,-0.55793434,-0.52166957,0.8484537,0.0599317,-0.06629768
40846,4.728199,-121.53523,7.588865,2.324029,-8.216354,5.2725844,-1.3009902,0.28237247,0.68707067,0.044517774,0.7776478,-0.62712204,-0.4844856,0.87132525,0.03759969,-0.06820761
40952,7.834316,-129.07689,3.8197818,2.883351,-7.317251,6.6574306,-1.2090551,0.22449298,0.8869763,0.1040978,0.6529397,-0.7502222,-0.42660716,0.9012431,0.0006681615,-0.07593901
41059,10.786651,-136.3077,0.029959736,3.365505,-6.110072,6.868597,-1.7289014,0.33490685,1.2771665,0.14714071,0.58925736,-0.794434,-0.37044543,0.92408633,-0.034734417,-0.08733926
41166,13.25745,-143.61743,-1.5464057,4.1844482,-4.890929,7.383054,-1.7263052,-0.47006083,0.56062156,0.19593674,0.44860047,-0.8719899,-0.31155503,0.94309646,-0.048768826,-0.10547097
41272,3.5584345,-177.80989,-16.251783,5.2719865,-0.421735,7.5876403,-2.776077,2.8374689,0.44974953,0.3576664,-0.15734184,-0.92049897,-0.023297945,0.98921806,-0.14184205,-0.028030839
41379,-4.9192963,168.57025,-12.527458,6.9134626,3.2135608,5.1774697,0.15088372,0.9821186,0.41401392,0.5285851,-0.3881329,-0.75495076,0.103551485,0.98771214,-0.11271073,0.031593084
41486,-14.156526,171.3783,-8.470999,6.8817573,3.3014967,4.7862434,1.0285444,2.8049407,-0.64996064,0.6326626,-0.3408202,-0.6953989,0.08346619,0.98618454,-0.082323104,0.117031515
41592,-36.705284,167.15433,3.0114448,9.512666,2.0811574,-0.13040882,0.15302174,2.6587908,-0.8811731,0.9077189,-0.1977482,-0.3700568,0.097916834,0.9437791,-0.010426459,0.31557027
41699,-49.882,153.8746,25.133955,7.682755,0.19501504,-2.5262225,0.032986723,3.7733147,-2.252413,0.9897708,0.026550988,-0.14017405,0.11065325,0.8828549,0.09915985,0.44552267
41806,-48.682117,141.20111,45.874176,7.304091,-3.5294132,-6.5150576,1.0731375,0.95798945,-3.0311134,0.952527,0.29607794,0.070923656,0.12718843,0.8447859,0.20884018,0.47596803
41912,-36.857285,131.72845,51.95526,8.185846,-8.522635,-4.377669,-3.033404,-1.6607898,-1.1339186,0.8249429,0.5651608,0.007904037,0.22237314,0.83492607,0.2630264,0.42926192
42019,-26.846466,123.298874,27.0449,8.319843,-6.10409,0.01375873,-4.629748,-5.004208,0.93874717,0.79711246,0.43110454,-0.42280093,0.40131772,0.858063,0.092979,0.30663803
42126,-31.47354,118.71028,-10.097834,3.3445675,0.022731815,7.3016977,-2.1461225,-3.5150714,3.509268,0.3816916,-0.13792077,-0.9139417,0.5092418,0.8127163,-0.21058522,0.18925862
42232,-39.925083,126.16448,-28.550714,0.25962123,4.0031924,9.741778,-0.63117653,-1.7146988,3.2421672,0.13999705,-0.27890798,-0.9500585,0.48743525,0.7740932,-0.35644203,0.19009377
42339,-41.673935,148.72696,-47.462715,4.9519463,5.0608196,18.241085,1.7554741,-1.2986996,0.46960264,-0.053752944,-0.18473043,-0.9813181,0.3684618,0.7853203,-0.44997594,0.21220179
42446,-39.04397,151.5725,-50.17258,-0.035892338,0.76271224,9.497113,-0.14065172,-0.079870634,0.032986723,-0.17079175,-0.09716395,-0.98050463,0.34693888,0.79268587,-0.46168774,0.19526127
42552,-37.880962,153.36893,-49.653423,0.006580262,0.05084748,9.652646,0.15073101,0.03604105,-0.05543602,-0.1621513,-0.05818818,-0.9850488,0.33033252,0.8039756,-0.4543127,0.19520146
42659,-37.845657,152.47734,-49.84647,-0.119042926,0.69571316,9.608977,-0.11377365,-0.015577063,0.027183503,-0.15857519,-0.05724103,-0.98568624,0.33680257,0.80072933,-0.45714515,0.19082676
42766,-37.74773,152.23755,-50.31887,-0.20338991,0.62871414,9.6376915,-0.023823744,-0.016493361,0.029168814,-0.1546523,-0.053059902,-0.9865431,0.33898365,0.7984555,-0.46077633,0.1877341
42872,-37.668385,151.97115,-50.65791,-0.13878371,0.62452674,9.553943,-0.019242255,-0.014355333,0.027488936,-0.162217,-0.05246157,-0.98535955,0.3411668,0.7965613,-0.463519,0.18505532
42979,-37.626545,151.8021,-50.887108,-0.1274178,0.6065805,9.61795,-0.018478675,-0.015882496,0.029321533,-0.16670051,-0.054387145,-0.9845065,0.34259155,0.7952672,-0.46535587,0.18337117
43086,-37.557095,151.52095,-51.219807,-0.117248304,0.5988038,9.612567,-0.018936822,-0.014202617,0.0290161,-0.17087822,-0.056056704,-0.9836962,0.34487218,0.7933003,-0.4680634,0.18070559
43192,-37.51085,151.35226,-51.444542,-0.14476576,0.60837513,9.650253,-0.012217305,-0.014660766,0.031001411,-0.16575637,-0.0519135,-0.9847994,0.34626025,0.7920261,-0.46985224,0.17898987
43299,-37.39454,150.86131,-52.00941,-0.18604195,0.69272214,9.64128,-0.0290161,-0.018020526,0.028099801,-0.15790218,-0.05797369,-0.98575145,0.35018435,0.7885953,-0.47442693,0.17437738
43406,-37.334076,150.58104,-52.34683,-0.13160524,0.68494546,9.604192,-0.025198191,-0.016340645,0.027794369,-0.15110882,-0.064673215,-0.98639923,0.3524458,0.7865375,-0.4771276,0.17172614
43513,-37.323185,150.48819,-52.45475,-0.16510475,0.62572306,9.639485,-0.018936822,-0.010995574,0.029321533,-0.15571965,-0.05615473,-0.98620385,0.35321265,0.7858384,-0.4779993,0.17092536
43619,-37.210278,150.00082,-53.031223,-0.12622139,0.62093747,9.629914,-0.018325957,-0.012980886,0.027030788,-0.15495676,-0.040481217,-0.98709154,0.35706708,0.7822909,-0.4825811,0.16625167
43727,-37.210278,150.00082,-53.031223,-0.12622139,0.62093747,9.629914,-0.018325957,-0.012980886,0.027030788,-0.15495676,-0.040481217,-0.98709154,0.35706708,0.7822909,-0.4825811,0.16625167
43832,-37.098667,149.40247,-53.703327,-0.1471586,0.5880361,9.632307,-0.01740966,-0.014049901,0.029932396,-0.15952891,-0.057430908,-0.9855213,0.36177197,0.77794385,-0.48792946,0.16077706
43939,-37.033585,149.08072,-54.048683,-0.16450654,0.619741,9.643075,-0.029168814,-0.01771509,0.027183503,-0.16258295,-0.064076066,-0.9846121,0.36424062,0.7756698,-0.4906694,0.15782464
44046,-36.958595,148.67868,-54.505447,-0.17048861,0.6095715,9.631111,-0.020922136,-0.016035212,0.028252516,-0.17563179,-0.052911453,-0.983033,0.36735532,0.77267736,-0.49424556,0.15408128
44152,-36.905144,148.36368,-54.843014,-0.16331014,0.61016977,9.629914,-0.02367103,-0.014813482,0.02687807,-0.15065284,-0.06546449,-0.9864168,0.36976597,0.7703858,-0.49689668,0.15123658
44259,-36.83817,148.057,-55.20254,-0.30448666,0.6239284,9.631709,-0.025198191,-0.014966198,0.028863383,-0.15389478,-0.08206267,-0.9846736,0.37209296,0.7680576,-0.4996583,0.14824295
44366,-36.79062,147.85773,-55.447193,-0.2973082,0.6233303,9.620343,-0.023365596,-0.021991149,0.02977968,-0.15807596,-0.068417214,-0.98505384,0.37359792,0.76650244,-0.5015147,0.14622447
44473,-36.72484,147.43266,-55.899952,-0.17766707,0.6161518,9.632906,-0.024129178,-0.01572978,0.027947085,-0.16528068,-0.04264429,-0.9853242,0.37680578,0.76334685,-0.5050192,0.142389
44579,-36.68764,147.23431,-56.140266,-0.1477568,0.61555356,9.594022,-0.02351831,-0.01863139,0.027794369,-0.1558352,-0.06623409,-0.98555994,0.37830883,0.7617596,-0.5068327,0.14044692
44686,-36.639904,146.91963,-56.49002,-0.16271193,0.59641105,9.608379,-0.02351831,-0.018325957,0.02855795,-0.1580124,-0.07284612,-0.9847464,0.38067532,0.75933015,-0.5094963,0.13754134
44792,-36.58547,146.49371,-56.935036,-0.16331014,0.61854464,9.651449,-0.019394971,-0.018784106,0.027183503,-0.16440906,-0.048342552,-0.9852069,0.3838509,0.7561112,-0.51289725,0.13375616
44900,-36.545883,146.15898,-57.26036,-0.16570297,0.60837513,9.620941,-0.022907447,-0.014966198,0.027183503,-0.1631655,-0.054202873,-0.9851087,0.38630918,0.7536632,-0.515393,0.13087028
45006,-36.518204,145.83746,-57.588448,-0.15912269,0.61196434,9.64128,-0.02076942,-0.015118915,0.028863383,-0.15772268,-0.05008726,-0.9862124,0.38870504,0.7511925,-0.5178866,0.12810825
45112,-36.493248,145.60251,-57.816982,-0.1375873,0.6269195,9.635897,-0.02687807,-0.020158552,0.029168814,-0.15317866,-0.064089976,-0.986118,0.39041924,0.7494457,-0.5196216,0.12608486
45219,-36.468914,145.26404,-58.146408,-0.16331014,0.60717875,9.657433,-0.021533,-0.014966198,0.029321533,-0.15388769,-0.048264947,-0.98690885,0.3929114,0.74687594,-0.522119,0.12324238
45326,-36.447998,145.0577,-58.373028,-0.15254244,0.62452674,9.608379,-0.017867807,-0.015882496,0.028099801,-0.15978472,-0.05906224,-0.98538345,0.39443105,0.7452057,-0.5237958,0.12136937
45433,-36.410316,144.59308,-58.80646,-0.15314065,0.5910272,9.5048895,-0.023365596,-0.017104227,0.029626964,-0.16619113,-0.06322206,-0.98406476,0.3977786,0.7417439,-0.52705777,0.117465876
45539,-36.38428,144.13666,-59.25737,-0.14057833,0.61675,9.630512,-0.024740042,-0.01572978,0.028710665,-0.15980239,-0.064083464,-0.9850668,0.40109816,0.7381637,-0.53040546,0.113598585
45646,-36.36877,143.91658,-59.482243,-0.15433705,0.6095715,9.619745,-0.02367103,-0.02107485,0.029321533,-0.16057399,-0.05334199,-0.98558134,0.40268597,0.73640394,-0.532054,0.11167698
45752,-36.363014,143.81055,-59.599342,-0.15613168,0.61016977,9.620343,-0.021380283,-0.018325957,0.03145956,-0.15147099,-0.052544247,-0.9870642,0.40346226,0.73550713,-0.5329035,0.110730566
45859,-36.329178,143.16129,-60.28153,-0.13399807,0.61914283,9.629914,-0.021685716,-0.014966198,0.030695977,-0.14596848,-0.050417513,-0.9880037,0.40814856,0.7301403,-0.537845,0.10503611
45966,-36.30985,142.83372,-60.615368,-0.15792629,0.634098,9.67119,-0.01771509,-0.016493361,0.0290161,-0.1362906,-0.0589649,-0.9889125,0.4104716,0.7274686,-0.54024553,0.10216307
46072,-36.297188,142.50069,-60.938717,-0.1477568,0.5946164,9.640084,-0.020922136,-0.016340645,0.02565634,-0.14192039,-0.057479333,-0.9882078,0.41282547,0.72478956,-0.5425748,0.09933657
46179,-36.29541,142.39459,-61.04955,-0.15732808,0.61555356,9.620941,-0.01863139,-0.017256944,0.030085113,-0.15184514,-0.054424755,-0.98690474,0.41358593,0.7238882,-0.5433652,0.09842144
46286,-36.280563,141.82262,-61.603973,-0.1471586,0.62931234,9.640682,-0.022296581,-0.019242255,0.02855795,-0.13994583,-0.074186794,-0.98737603,0.4176039,0.7192285,-0.54732054,0.09358174
46392,-36.286823,141.47818,-61.921627,-0.1585245,0.61375904,9.631111,-0.0206167,-0.014966198,0.02947425,-0.1476937,-0.066703714,-0.98678124,0.4200375,0.71642673,-0.5495939,0.09081717
46499,-36.29179,141.25525,-62.13815,-0.18005991,0.6305087,9.626325,-0.02443461,-0.018325957,0.029168814,-0.14332633,-0.061632678,-0.9877545,0.4216155,0.71455014,-0.5511259,0.08898693
46606,-36.29078,141.01102,-62.35425,-0.16151553,0.61854464,9.636495,-0.02107485,-0.016340645,0.028710665,-0.15463369,-0.060392965,-0.9861243,0.42329907,0.7126126,-0.5526581,0.087006725
46712,-36.312286,140.51538,-62.78869,-0.16749758,0.6239284,9.617352,-0.025045475,-0.020463986,0.0290161,-0.15778817,-0.05470567,-0.9859565,0.42676565,0.708595,-0.5557427,0.083151996
46819,-36.340397,140.04716,-63.209,-0.14596218,0.62871414,9.667003,-0.02107485,-0.016646078,0.028863383,-0.16377664,-0.055550158,-0.9849322,0.43004367,0.704698,-0.55869687,0.079504386
46926,-36.351784,139.67435,-63.51059,-0.15732808,0.619741,9.6682,-0.022296581,-0.016187929,0.02687807,-0.16484082,-0.06401339,-0.9842407,0.43257463,0.7017798,-0.56081396,0.07662912
47032,-36.351784,139.67435,-63.51059,-0.15732808,0.619741,9.6682,-0.022296581,-0.016187929,0.02687807,-0.16484082,-0.06401339,-0.9842407,0.43257463,0.7017798,-0.56081396,0.07662912
47139,-36.36436,139.42578,-63.72834,-0.15613168,0.63649076,9.618548,-0.02321288,-0.01863139,0.029626964,-0.15787321,-0.057724804,-0.9857707,0.4342799,0.6997262,-0.56232333,0.074676804
47246,-36.411556,138.5761,-64.48162,-0.18783657,0.60418767,9.6012,-0.020158552,-0.020463986,0.030848695,-0.17151861,-0.05814164,-0.9834637,0.44006708,0.69259626,-0.56748074,0.067948714
47352,-36.428032,138.19606,-64.79294,-0.14656039,0.62572306,9.637093,-0.02321288,-0.017867807,0.027794369,-0.14894153,-0.036389254,-0.9881762,0.4425943,0.68952656,-0.5695972,0.06498058
47459,-36.438442,137.94852,-65.00952,-0.14596218,0.59940207,9.661619,-0.02107485,-0.02107485,0.030390546,-0.15245114,-0.04254733,-0.98739475,0.44423714,0.6874518,-0.5710485,0.062983945
47566,-36.488117,137.447,-65.44054,-0.1489532,0.61555356,9.629914,-0.02733622,-0.022907447,0.032223143,-0.15038198,-0.0565083,-0.9870117,0.44763193,0.6831601,-0.5739504,0.05915087
47672,-36.537376,137.06735,-65.725586,-0.1489532,0.64725846,9.622736,-0.020922136,-0.0106901415,0.029626964,-0.16165571,-0.06000768,-0.98502105,0.45019856,0.68005675,-0.5758946,0.05647557
47779,-36.58091,136.53596,-66.12878,-0.14596218,0.60358953,9.647263,-0.025045475,-0.02031127,0.029626964,-0.14326893,-0.047821287,-0.9885278,0.45367962,0.67576474,-0.5785837,0.052513886
47886,-36.628853,136.1448,-66.42051,-0.14237295,0.6089733,9.647263,-0.02443461,-0.015882496,0.030390546,-0.15529281,-0.04312703,-0.9869267,0.4562717,0.6725533,-0.5805315,0.04971272
47992,-36.67198,135.8868,-66.62063,-0.14237295,0.6454638,9.597611,-0.021380283,-0.016187929,0.031612277,-0.14591716,-0.06262512,-0.9873127,0.45801342,0.67034394,-0.58186567,0.047907077
48099,-36.710434,135.48787,-66.916046,-0.15014961,0.4660022,9.629914,-0.021991149,-0.019700404,0.028099801,-0.14403188,-0.058498953,-0.98784244,0.46059018,0.66709465,-0.5837978,0.044962194
48206,-36.770885,135.08063,-67.203606,-0.15014961,0.62153566,9.6347,-0.022602012,-0.0154243475,0.031001411,-0.15265636,-0.058175787,-0.9865656,0.4632673,0.66375226,-0.5856962,0.042145852
48312,-36.84186,134.54274,-67.59301,-0.13399807,0.60418767,9.598209,-0.022602012,-0.019547688,0.029626964,-0.16507599,-0.06628629,-0.9840508,0.46674776,0.65929943,-0.5882207,0.038303565
48419,-36.896416,134.13971,-67.89556,-0.14476576,0.6269195,9.586246,-0.025350908,-0.018325957,0.02947425,-0.16514853,-0.04914768,-0.9850434,0.46934134,0.6558848,-0.59015465,0.03537376
48526,-36.951042,133.72415,-68.17849,-0.13938192,0.61076796,9.58804,-0.02275473,-0.019394971,0.02733622,-0.1739381,-0.050884444,-0.98344105,0.47198132,0.6525045,-0.5919618,0.03244619
48632,-36.970303,133.5834,-68.27181,-0.17288142,0.63230336,9.638887,-0.024587328,-0.017256944,0.028710665,-0.15773231,-0.0503214,-0.9861989,0.4728729,0.6513662,-0.5925565,0.031467106
48739,-37.042423,133.03899,-68.65163,-0.2979064,0.6227321,9.641878,-0.024587328,-0.021533,0.027488936,-0.16046457,-0.057644077,-0.9853569,0.4762975,0.64685875,-0.5949406,0.027570754
48846,-37.120983,132.62613,-68.927376,-0.14835499,0.6131607,9.509077,-0.020463986,-0.017256944,0.030390546,-0.16760592,-0.060270775,-0.98401,0.47894934,0.64339244,-0.5966891,0.024815626
48952,-37.163033,132.35768,-69.124855,-0.16630118,0.61076796,9.594022,-0.02107485,-0.019242255,0.030695977,-0.1665071,-0.04456123,-0.98503286,0.48063654,0.6410716,-0.5979066,0.022878544
49059,-37.290043,131.65701,-69.58655,-0.1585245,0.62093747,9.625727,-0.021838432,-0.016646078,0.02855795,-0.1612702,-0.05799464,-0.9852048,0.48504874,0.6351957,-0.6007705,0.018139463
49166,-37.32345,131.51125,-69.67743,-0.14656039,0.61076796,9.628119,-0.025198191,-0.0154243475,0.03176499,-0.16180357,-0.06321891,-0.9847959,0.48598242,0.63396686,-0.60134065,0.017218495
49272,-37.42231,130.9499,-70.04976,-0.15074782,0.6095715,9.656834,-0.019089539,-0.01572978,0.028710665,-0.16465943,-0.057860415,-0.9846519,0.48945874,0.62922055,-0.6036002,0.01335804
49379,-37.51359,130.50444,-70.31218,-0.017347964,0.61375904,9.659226,-0.027947085,-0.017256944,0.030848695,-0.15407987,-0.060055256,-0.98623157,0.49223188,0.62555724,-0.60520697,0.010506842
49486,-37.67404,129.78606,-70.74521,-0.16031912,0.6275177,9.639485,-0.021533,-0.016646078,0.028252516,-0.17331141,-0.048802614,-0.9836572,0.49670443,0.61950874,-0.60783094,0.005927158
49592,-37.67404,129.78606,-70.74521,-0.16031912,0.6275177,9.639485,-0.021533,-0.016646078,0.028252516,-0.17331141,-0.048802614,-0.9836572,0.49670443,0.61950874,-0.60783094,0.005927158
49699,-37.801094,129.195,-71.08387,-0.0071784677,0.62153566,9.6347,-0.022296581,-0.014966198,0.029626964,-0.16945928,-0.055439994,-0.9839766,0.50032496,0.6146143,-0.609852,0.0021751472
49806,-37.801094,129.195,-71.08387,-0.0071784677,0.62153566,9.6347,-0.022296581,-0.014966198,0.029626964,-0.16945928,-0.055439994,-0.9839766,0.50032496,0.6146143,-0.609852,0.0021751472
49912,-38.01069,128.31154,-71.56277,-0.18484555,0.6269195,9.623334,-0.02275473,-0.015882496,0.02977968,-0.16091746,-0.060150284,-0.98513323,0.5057338,0.60731006,-0.6126968,-0.0032228255
50019,-38.162827,127.68812,-71.88633,-0.17108682,0.637089,9.638289,-0.023365596,-0.015882496,0.02855795,-0.15520175,-0.043580655,-0.986921,0.5095164,0.6021778,-0.61459446,-0.006969299
50126,-38.162827,127.68812,-71.88633,-0.17108682,0.637089,9.638289,-0.023365596,-0.015882496,0.02855795,-0.15520175,-0.043580655,-0.986921,0.5095164,0.6021778,-0.61459446,-0.006969299
50232,-38.427525,126.60192,-72.41308,-0.14536397,0.6029913,9.610173,-0.025503622,-0.016035212,0.03191771,-0.16934587,-0.048824023,-0.98434657,0.516014,0.5933649,-0.6176313,-0.013388565
50339,-38.49734,126.293465,-72.55753,-0.17048861,0.6269195,9.573683,-0.020158552,-0.017562376,0.02611449,-0.15996155,-0.04203821,-0.9862277,0.51782054,0.5908966,-0.61844236,-0.015236162
50446,-38.532207,126.13909,-72.637245,-0.1597209,0.6143572,9.592228,-0.023060162,-0.019700404,0.0290161,-0.16863929,-0.040891945,-0.98482925,0.51871985,0.58961904,-0.6188835,-0.016196765
50553,-38.71822,125.34408,-73.00324,-0.15553346,0.6227321,9.628119,-0.021685716,-0.021991149,0.028405234,-0.17770751,-0.048927207,-0.9828663,0.5233413,0.58322513,-0.62090635,-0.020919105
50659,-38.903435,124.68528,-73.27575,-0.14297114,0.59700924,9.6484585,-0.02367103,-0.014049901,0.032375857,-0.1670984,-0.02514694,-0.9856195,0.52723175,0.5779249,-0.6224378,-0.024508541
50766,-39.02903,124.20832,-73.48927,-0.1375873,0.5982056,9.615558,-0.020158552,-0.017104227,0.030085113,-0.17111076,-0.040231183,-0.9844301,0.5299905,0.57401675,-0.6235962,-0.027251834
50872,-39.0732,124.03667,-73.55227,-0.12622139,0.6329016,9.614959,-0.025503622,-0.015577063,0.028252516,-0.17194058,-0.049689926,-0.98385334,0.53097785,0.57268614,-0.62393814,-0.02818462
50979,-39.165176,123.72246,-73.685234,-0.1274178,0.6065805,9.661619,-0.018936822,-0.019700404,0.030848695,-0.17102945,-0.041502304,-0.98439145,0.53280956,0.57010025,-0.6246643,-0.029903544
51086,-39.327133,123.0696,-73.956474,-0.15792629,0.6299105,9.636495,-0.020922136,-0.019700404,0.02947425,-0.16825974,-0.05028589,-0.9844592,0.5364914,0.56486076,-0.62608016,-0.03365961
51192,-39.517704,122.40396,-74.21277,-0.13698909,0.61076796,9.644272,-0.02107485,-0.01817324,0.030390546,-0.15859158,-0.051055,-0.98602337,0.54029095,0.5594866,-0.6274338,-0.037245765
51299,-39.71392,121.7113,-74.449615,-0.16749758,0.62213385,9.597611,-0.025045475,-0.01863139,0.028099801,-0.17281173,-0.06523882,-0.98279196,0.5442031,0.5540349,-0.6286636,-0.040869895
51406,-39.76369,121.54374,-74.519394,-0.13280165,0.6023931,9.600004,-0.024587328,-0.020463986,0.031612277,-0.17462924,-0.047479276,-0.98348886,0.5451456,0.55263233,-0.6290207,-0.041793626
51512,-39.819668,121.36816,-74.573845,-0.1495514,0.6203393,9.602397,-0.023823744,-0.014202617,0.031612277,-0.16952339,-0.04620835,-0.9844423,0.5461492,0.5512459,-0.6293092,-0.042648893
51619,-39.819668,121.36816,-74.573845,-0.1495514,0.6203393,9.602397,-0.023823744,-0.014202617,0.031612277,-0.16952339,-0.04620835,-0.9844423,0.5461492,0.5512459,-0.6293092,-0.042648893
51726,-39.819668,121.36816,-74.573845,-0.1495514,0.6203393,9.602397,-0.023823744,-0.014202617,0.031612277,-0.16952339,-0.04620835,-0.9844423,0.5461492,0.5512459,-0.6293092,-0.042648893
51833,-40.45127,119.2109,-75.15472,-0.15912269,0.62153566,9.610173,-0.02076942,-0.016035212,0.03023783,-0.17118387,-0.05105748,-0.98391527,0.55811095,0.5347847,-0.63220954,-0.05318495
51939,-40.670353,118.48058,-75.33552,-0.16031912,0.6233303,9.638289,-0.022143863,-0.012370021,0.030390546,-0.1602118,-0.03953128,-0.98629075,0.56209034,0.529208,-0.63307315,-0.056672014
52046,-40.84214,117.92908,-75.470146,-0.16390835,0.62093747,9.615558,-0.021685716,-0.014813482,0.028099801,-0.15486646,-0.0421179,-0.98703724,0.56508434,0.52495575,-0.63371044,-0.059264485
52152,-41.002903,117.39151,-75.61425,-0.15912269,0.60000026,9.625727,-0.022296581,-0.019089539,0.029626964,-0.16708094,-0.053492814,-0.984491,0.5679491,0.52075243,-0.6343644,-0.061906785
52259,-41.15872,116.832245,-75.72687,-0.13459627,0.6047859,9.672387,-0.019242255,-0.016798794,0.027030788,-0.18093462,-0.04648031,-0.9823962,0.5708883,0.51662076,-0.63484055,-0.064553015
52366,-41.38704,116.062164,-75.85349,-0.14237295,0.61675,9.609575,-0.026725354,-0.018020526,0.026725354,-0.15077679,-0.049893588,-0.98730797,0.57494974,0.5109946,-0.6353712,-0.06797611
52472,-41.49887,115.6867,-75.92921,-0.18185452,0.61076796,9.64487,-0.021685716,-0.019394971,0.029321533,-0.16274686,-0.036971256,-0.98597497,0.576905,0.50815886,-0.6356845,-0.06971628
52579,-41.670635,115.114296,-76.01934,-0.1489532,0.62452674,9.6275215,-0.021991149,-0.015577063,0.027488936,-0.17333657,-0.03148592,-0.9843592,0.57988197,0.50395423,-0.63604134,-0.072238915
52686,-41.911438,114.33078,-76.14826,-0.14117654,0.62871414,9.656834,-0.025961772,-0.019089539,0.029626964,-0.15742147,-0.0432037,-0.986586,0.583925,0.49811003,-0.6365442,-0.07569315
52792,-41.9719,114.13946,-76.17073,-0.17467603,0.619741,9.643075,-0.019089539,-0.016340645,0.02855795,-0.16201815,-0.06313302,-0.9847661,0.58491504,0.49671963,-0.6366275,-0.076481655
52899,-42.209408,113.34956,-76.27064,-0.1585245,0.61854464,9.64128,-0.018478675,-0.018936822,0.02855795,-0.1617392,-0.04077923,-0.9859906,0.5889308,0.4909758,-0.63696635,-0.07985727
53006,-42.393425,112.739586,-76.337555,-0.18305092,0.60119665,9.64487,-0.024740042,-0.01985312,0.030390546,-0.15862747,-0.042388722,-0.98642814,0.59200555,0.48657027,-0.637171,-0.08241344
53112,-42.576473,112.10897,-76.38995,-0.16809578,0.6233303,9.656236,-0.021380283,-0.014049901,0.029168814,-0.16826679,-0.041328777,-0.9848747,0.5951446,0.48212242,-0.63728523,-0.08502001
53219,-42.81141,111.300804,-76.47024,-0.15194423,0.6059823,9.67478,-0.021685716,-0.021838432,0.030085113,-0.16377498,-0.04815611,-0.98532164,0.5991121,0.47631615,-0.6374694,-0.088432744
53326,-43.015526,110.660645,-76.48607,-0.1477568,0.61675,9.632906,-0.022449298,-0.015118915,0.031154126,-0.16393857,-0.045755815,-0.98540884,0.6023038,0.4718692,-0.6374397,-0.0907754
53432,-43.213184,110.03308,-76.510826,-0.12921242,0.6143572,9.667003,-0.021380283,-0.017562376,0.03176499,-0.16878249,-0.051886246,-0.98428667,0.6053871,0.4674487,-0.637435,-0.09313854
53539,-43.275738,109.81791,-76.50808,-0.16091733,0.61794645,9.6275215,-0.020922136,-0.015271631,0.027030788,-0.16449614,-0.061611593,-0.98445165,0.60643226,0.4660166,-0.637375,-0.0939231
53646,-43.535007,108.94487,-76.511086,-0.16151553,0.6029913,9.662217,-0.024129178,-0.01572978,0.0290161,-0.1705853,-0.05419574,-0.9838514,0.61064,0.46007514,-0.6371907,-0.0971478
53752,-43.787838,108.07326,-76.5211,-0.16331014,0.61495537,9.604192,-0.02031127,-0.022143863,0.027794369,-0.15872727,-0.04699554,-0.9862034,0.61476105,0.45409524,-0.63700634,-0.10044526
53859,-43.99433,107.395775,-76.507286,-0.1477568,0.6065805,9.636495,-0.02565634,-0.016340645,0.032070424,-0.15510088,-0.051203895,-0.9865708,0.6179684,0.44949067,-0.63678813,-0.102830455
53966,-43.99433,107.395775,-76.507286,-0.1477568,0.6065805,9.636495,-0.02565634,-0.016340645,0.032070424,-0.15510088,-0.051203895,-0.9865708,0.6179684,0.44949067,-0.63678813,-0.102830455
54073,-43.99433,107.395775,-76.507286,-0.1477568,0.6065805,9.636495,-0.02565634,-0.016340645,0.032070424,-0.15510088,-0.051203895,-0.9865708,0.6179684,0.44949067,-0.63678813,-0.102830455
54179,-44.607952,105.327545,-76.39295,-0.16390835,0.61914283,9.621539,-0.019242255,-0.019089539,0.03023783,-0.16874838,-0.058804423,-0.98390347,0.62756985,0.4357761,-0.6357622,-0.10982542
54286,-44.667404,105.09651,-76.38389,-0.15613168,0.619741,9.613763,-0.022296581,-0.022449298,0.02611449,-0.15671997,-0.052330278,-0.98625576,0.6285974,0.43425682,-0.6356378,-0.11068374
54393,-44.983974,103.90878,-76.267456,-0.14117654,0.61016977,9.634102,-0.022602012,-0.020922136,0.027641652,-0.16839324,-0.046291094,-0.9846323,0.6339147,0.42673835,-0.6347474,-0.114639826
54499,-45.18191,103.16685,-76.171196,-0.17108682,0.60059845,9.621539,-0.021533,-0.015271631,0.027488936,-0.1588863,-0.029938582,-0.9868429,0.6372111,0.42213765,-0.6340968,-0.11697464
54606,-45.382225,102.43382,-76.066895,-0.13459627,0.62931234,9.616156,-0.02397646,-0.013744468,0.02733622,-0.15975733,-0.036998566,-0.9864627,0.64045113,0.4175934,-0.63342756,-0.11919565
54712,-45.57865,101.6948,-75.97508,-0.17527425,0.6143572,9.650851,-0.026267204,-0.021991149,0.02947425,-0.17595212,-0.048287544,-0.98321366,0.64365435,0.41294178,-0.63278466,-0.12153923
54819,-45.78193,100.938835,-75.849754,-0.09631111,0.61136615,9.608379,-0.022143863,-0.01863139,0.02947425,-0.17062445,-0.045198362,-0.98429894,0.64693093,0.40831903,-0.6320161,-0.123740055
54926,-45.97934,100.158875,-75.68482,-0.15074782,0.61016977,9.585049,-0.017562376,-0.00870483,0.02397646,-0.17442498,-0.02296978,-0.98440254,0.6502849,0.40378308,-0.6310653,-0.12587845
55032,-46.11566,99.64343,-75.59038,-0.15792629,0.61375904,9.647861,-0.022602012,-0.01695151,0.029932396,-0.1600038,-0.0443013,-0.9861218,0.6524759,0.40065965,-0.63050246,-0.12733331
55139,-46.377193,98.59684,-75.39416,-0.14297114,0.6173482,9.64128,-0.024281893,-0.016340645,0.027030788,-0.16140255,-0.04324992,-0.9859405,0.6568454,0.39438617,-0.629304,-0.1303463
55246,-46.64729,97.51678,-75.13736,-0.16630118,0.62572306,9.623933,-0.02321288,-0.015577063,0.031154126,-0.16448836,-0.030786386,-0.98589844,0.66134363,0.38815916,-0.6278809,-0.13312648
55352,-46.84757,96.695915,-74.933716,-0.16151553,0.6125626,9.641878,-0.022449298,-0.021533,0.031001411,-0.16928582,-0.033439778,-0.98499954,0.6647141,0.38346553,-0.6267599,-0.13520853
55459,-46.97587,96.15299,-74.80046,-0.16749758,0.61495537,9.607781,-0.020005837,-0.01695151,0.029321533,-0.15123814,-0.03573222,-0.9878513,0.66691136,0.38035944,-0.62601334,-0.13661343
55566,-47.15755,95.33697,-74.59622,-0.16331014,0.60418767,9.647861,-0.022296581,-0.02031127,0.028710665,-0.15112697,-0.0522801,-0.9871309,0.6701654,0.37574857,-0.6248493,-0.13876106
55672,-47.398136,94.21911,-74.281395,-0.1268196,0.619741,9.622736,-0.02321288,-0.016187929,0.029168814,-0.14796284,-0.041034196,-0.9881413,0.67458844,0.36962274,-0.6231204,-0.14152886
55779,-47.52897,93.646385,-74.11477,-0.1375873,0.6131607,9.608977,-0.025809057,-0.017256944,0.03176499,-0.1776281,-0.053556807,-0.98263925,0.6768454,0.3664528,-0.6222409,-0.14286
55886,-47.647705,93.06696,-73.94514,-0.14656039,0.61854464,9.626325,-0.025350908,-0.018936822,0.02733622,-0.16464676,-0.042912036,-0.9854187,0.6790891,0.36331072,-0.6213111,-0.1442769
55992,-47.94046,91.608986,-73.479515,-0.15194423,0.6131607,9.622137,-0.022143863,-0.017867807,0.02855795,-0.14365582,-0.049657293,-0.9883811,0.6846928,0.35558668,-0.61884004,-0.14761737
56099,-47.94046,91.608986,-73.479515,-0.15194423,0.6131607,9.622137,-0.022143863,-0.017867807,0.02855795,-0.14365582,-0.049657293,-0.9883811,0.6846928,0.35558668,-0.61884004,-0.14761737
56206,-48.17562,90.41469,-73.06351,-0.1489532,0.46061835,9.620343,-0.01817324,-0.013591751,0.028099801,-0.15324196,-0.04787313,-0.9870284,0.68923503,0.34940752,-0.616707,-0.15013966
56312,-48.44947,88.90118,-72.55595,-0.11365908,0.60358953,9.625129,-0.025809057,-0.01740966,0.027183503,-0.16386354,-0.04528319,-0.9854431,0.69482464,0.34152007,-0.6140067,-0.15355305
56419,-48.61855,87.97954,-72.233864,-0.13160524,0.6299105,9.637093,-0.025961772,-0.020922136,0.02855795,-0.15964489,-0.037368774,-0.98646694,0.69818985,0.336731,-0.6123388,-0.15551333
56526,-48.727818,87.347885,-72.00256,-0.15074782,0.61495537,9.597611,-0.024587328,-0.0206167,0.031001411,-0.1572955,-0.042348545,-0.98664314,0.70047736,0.333522,-0.61114794,-0.15682054
56632,-48.93173,86.055954,-71.49057,-0.15613168,0.5916254,9.64128,-0.022907447,-0.014660766,0.030390546,-0.15076628,-0.044033855,-0.9875882,0.7051269,0.32722354,-0.60854846,-0.15934123
56739,-49.066185,85.089836,-71.091385,-0.12861422,0.62632126,9.64128,-0.02076942,-0.016340645,0.02367103,-0.15667012,-0.041952174,-0.9867596,0.70855725,0.32265532,-0.6065094,-0.16120346
56846,-49.20496,84.12908,-70.69376,-0.14177473,0.619741,9.626325,-0.019547688,-0.019394971,0.028099801,-0.15618534,-0.049306996,-0.9864963,0.7119322,0.318053,-0.6045058,-0.16299577
56952,-49.386974,82.825676,-70.13567,-0.14596218,0.6059823,9.623933,-0.02397646,-0.020158552,0.031001411,-0.15171199,-0.062466472,-0.9864489,0.7164646,0.31188536,-0.60173047,-0.16530724
57059,-49.512756,81.81175,-69.67925,-0.15912269,0.63230336,9.620343,-0.021838432,-0.01817324,0.02855795,-0.1530031,-0.063076615,-0.98621064,0.7199581,0.307245,-0.59946936,-0.1670249
57166,-49.591763,81.11662,-69.35321,-0.13280165,0.61675,9.628718,-0.021838432,-0.013897184,0.0290161,-0.1680085,-0.05134739,-0.98444736,0.7223424,0.30414835,-0.59786516,-0.16814426
57272,-49.63547,80.768394,-69.19525,-0.15194423,0.61675,9.632906,-0.023823744,-0.015882496,0.030543262,-0.17564464,-0.047565617,-0.98330384,0.7235239,0.3025399,-0.59709287,-0.16870923
57379,-49.851093,78.67258,-68.213524,-0.2943172,0.6275177,9.622736,-0.019700404,-0.011301006,0.0290161,-0.16240259,-0.040948857,-0.98587453,0.7305478,0.2931789,-0.59221965,-0.1721103
57486,-49.917927,77.97508,-67.881516,-0.16091733,0.6131607,9.608379,-0.018020526,-0.014049901,0.029168814,-0.16212852,-0.028790662,-0.9863496,0.7328519,0.2900805,-0.5905767,-0.17320652
57592,-50.005215,76.90831,-67.37001,-0.1585245,0.6131607,9.624531,-0.022907447,-0.01572978,0.026267204,-0.1534072,-0.054447502,-0.9866619,0.73633945,0.2854053,-0.58800745,-0.17491487
57699,-50.107773,75.47214,-66.666084,-0.15314065,0.6059823,9.633504,-0.018325957,-0.016340645,0.029168814,-0.15506479,-0.04052644,-0.9870727,0.74098676,0.2792017,-0.5844702,-0.17714292
57806,-50.107773,75.47214,-66.666084,-0.15314065,0.6059823,9.633504,-0.018325957,-0.016340645,0.029168814,-0.15506479,-0.04052644,-0.9870727,0.74098676,0.2792017,-0.5844702,-0.17714292
57912,-50.247883,73.30303,-65.567406,-0.15194423,0.64307106,9.626325,-0.022907447,-0.018325957,0.029626964,-0.14932165,-0.050137505,-0.9875167,0.7479168,0.2699435,-0.5790232,-0.18023063
58019,-50.287407,72.566574,-65.193275,-0.15314065,0.6233303,9.67478,-0.02641992,-0.018936822,0.02977968,-0.16670756,-0.043957777,-0.98502606,0.7502329,0.2668078,-0.57714957,-0.18128042
58126,-50.334583,71.44719,-64.59924,-0.15074782,0.61794645,9.630512,-0.020005837,-0.009773844,0.028252516,-0.17153297,-0.04078526,-0.9843338,0.7537583,0.2621976,-0.5741996,-0.18274476
58232,-50.38245,70.29221,-63.980953,-0.15493526,0.60358953,9.634102,-0.023823744,-0.015577063,0.030085113,-0.15357009,-0.05572056,-0.9865655,0.7573609,0.25742105,-0.57115453,-0.18417746
58339,-50.404472,68.78581,-63.174114,-0.13998011,0.6161518,9.605986,-0.024129178,-0.01863139,0.02657264,-0.1530328,-0.04468197,-0.98721045,0.762004,0.25132635,-0.56702584,-0.18618996
58446,-50.410122,68.05306,-62.782936,-0.1495514,0.6448657,9.635897,-0.02367103,-0.020463986,0.027488936,-0.14227797,-0.03692503,-0.98913777,0.76423717,0.24834946,-0.5650045,-0.1871738
58552,-50.410122,68.05306,-62.782936,-0.1495514,0.6448657,9.635897,-0.02367103,-0.020463986,0.027488936,-0.14227797,-0.03692503,-0.98913777,0.76423717,0.24834946,-0.5650045,-0.1871738
58659,-50.42151,65.754265,-61.51906,-0.1381855,0.61555356,9.610173,-0.02443461,-0.015577063,0.03023783,-0.16469777,-0.045513727,-0.98529345,0.7712017,0.23908567,-0.55858576,-0.18991545
58766,-50.39655,64.5872,-60.870674,-0.12801601,0.61495537,9.635897,-0.02367103,-0.019242255,0.028710665,-0.15568055,-0.043734632,-0.9868388,0.7747053,0.2344919,-0.55518687,-0.19134472
58872,-50.368355,63.43098,-60.235207,-0.15493526,0.61016977,9.6347,-0.02565634,-0.018784106,0.027641652,-0.15269734,-0.027714008,-0.98788434,0.7781303,0.22987051,-0.55182636,-0.19277054
58979,-50.314346,62.245487,-59.54498,-0.15314065,0.63170516,9.629316,-0.019089539,-0.015577063,0.027488936,-0.17189947,-0.048508365,-0.98391944,0.78168744,0.22538719,-0.5481911,-0.19404097
59086,-50.24898,61.04958,-58.85092,-0.15792629,0.61375904,9.645468,-0.021838432,-0.01771509,0.02947425,-0.186828,-0.030178726,-0.981929,0.7852455,0.22084673,-0.54448354,-0.1953302
59192,-50.224316,60.649326,-58.615536,-0.15134603,0.62153566,9.5970125,-0.021685716,-0.014813482,0.028863383,-0.17796503,-0.04066366,-0.98319626,0.7864362,0.21934177,-0.5432247,-0.19574025
59299,-50.067623,58.274807,-57.247604,-0.15433705,0.62871414,9.599406,-0.02397646,-0.016798794,0.02947425,-0.15705892,-0.047775608,-0.98643297,0.79338163,0.21018584,-0.53577626,-0.19827092
59406,-49.95183,57.075016,-56.53431,-0.16510475,0.60837513,9.6376915,-0.02611449,-0.014660766,0.02565634,-0.16405894,-0.05479312,-0.9849276,0.79691565,0.20574637,-0.53179216,-0.19947673
59512,-49.92001,56.67456,-56.30518,-0.16929218,0.62153566,9.651449,-0.02657264,-0.020922136,0.030695977,-0.1742308,-0.043491215,-0.98374397,0.79806536,0.20417531,-0.53051585,-0.19989268
59619,-49.83673,55.8711,-55.81715,-0.14596218,0.6131607,9.650253,-0.022602012,-0.014355333,0.0290161,-0.17347741,-0.056479327,-0.983217,0.8004319,0.20122564,-0.5278035,-0.2006003
59726,-49.65861,54.279305,-54.85333,-0.12981062,0.6334998,9.584451,-0.02321288,-0.020158552,0.031001411,-0.16956559,-0.036516886,-0.9848421,0.8050903,0.19533916,-0.52237225,-0.20198889
59832,-49.388916,52.279804,-53.66375,-0.17587246,0.6095715,9.615558,-0.025198191,-0.012980886,0.028405234,-0.1651368,-0.033787377,-0.9856918,0.81088823,0.18789119,-0.51534283,-0.20390911
59939,-49.2631,51.478863,-53.167015,-0.14476576,0.59760743,9.647263,-0.022296581,-0.0125227375,0.030695977,-0.14984767,-0.04452231,-0.9877061,0.8132487,0.18502502,-0.51239556,-0.20455573
60046,-49.01582,49.880295,-52.209717,-0.15433705,0.60837513,9.625727,-0.028099801,-0.020158552,0.029626964,-0.18046568,-0.04147204,-0.98270655,0.817857,0.17903543,-0.50659215,-0.20596261
60152,-48.939117,49.493717,-51.970825,-0.15014961,0.61196434,9.614361,-0.020158552,-0.016493361,0.026267204,-0.1579227,-0.04199649,-0.986558,0.8190023,0.17767642,-0.5050795,-0.20630333
60259,-48.632908,47.912136,-51.00595,-0.15792629,0.62452674,9.619146,-0.02855795,-0.02107485,0.02977968,-0.15716118,-0.04482563,-0.98655516,0.82362777,0.17194058,-0.4989512,-0.20765705
60366,-48.293674,46.331646,-50.031727,-0.16390835,0.64008003,9.664012,-0.026725354,-0.015118915,0.027030788,-0.16133298,-0.046333775,-0.98581177,0.8282779,0.16625875,-0.49260983,-0.20892414
60472,-48.209484,45.94565,-49.790092,-0.16749758,0.61555356,9.607781,-0.02107485,-0.018478675,0.030695977,-0.15940134,-0.04073706,-0.986373,0.8294161,0.16487089,-0.49104685,-0.20918784
60579,-47.750996,44.05315,-48.606064,-0.15613168,0.6161518,9.671788,-0.022449298,-0.017104227,0.027030788,-0.15938352,-0.056440078,-0.9856021,0.83503634,0.15813099,-0.48310027,-0.21053033
60686,-47.33586,42.52517,-47.641228,-0.15314065,0.62452674,9.643673,-0.023365596,-0.019089539,0.027794369,-0.1569454,-0.05738556,-0.98593867,0.839627,0.1527534,-0.47638294,-0.21154712
60792,-47.018425,41.398003,-46.94784,-0.13339986,0.61136615,9.6376915,-0.021685716,-0.020158552,0.029626964,-0.15550703,-0.027916336,-0.9874402,0.84297556,0.14865975,-0.47137392,-0.21236551
60899,-46.781273,40.638977,-46.47017,-0.13698909,0.61196434,9.614361,-0.020922136,-0.015882496,0.028405234,-0.17484231,-0.044807803,-0.98357636,0.84528226,0.14599586,-0.46783322,-0.21287377
61006,-46.41824,39.51515,-45.7706,-0.0041874396,0.61136615,9.622736,-0.022296581,-0.0154243475,0.028099801,-0.1565185,-0.04828869,-0.9864939,0.84868914,0.14199485,-0.4625156,-0.21364355
61112,-46.052055,38.405952,-45.07361,-0.13339986,0.631107,9.640682,-0.02275473,-0.01695151,0.028710665,-0.16545023,-0.04513399,-0.98518485,0.85205853,0.13801633,-0.4571985,-0.2142832
61219,-46.052055,38.405952,-45.07361,-0.13339986,0.631107,9.640682,-0.02275473,-0.01695151,0.028710665,-0.16545023,-0.04513399,-0.98518485,0.85205853,0.13801633,-0.4571985,-0.2142832
61326,-45.244396,36.18949,-43.69266,-0.14596218,0.4677968,9.599406,-0.021227568,-0.016798794,0.031306844,-0.1664279,-0.036457308,-0.98537946,0.85885614,0.13004655,-0.4460558,-0.21561126
61432,-45.105442,35.83118,-43.467403,-0.15732808,0.6143572,9.638289,-0.021533,-0.016646078,0.02947425,-0.1810617,-0.044561543,-0.9824617,0.85996765,0.12876321,-0.4441917,-0.2157995
61539,-44.52047,34.43416,-42.589462,-0.14117654,0.6017949,9.672387,-0.02275473,-0.016187929,0.029168814,-0.17276861,-0.052935276,-0.9835389,0.86436737,0.123822786,-0.4366178,-0.21656856
61646,-44.52047,34.43416,-42.589462,-0.14117654,0.6017949,9.672387,-0.02275473,-0.016187929,0.029168814,-0.17276861,-0.052935276,-0.9835389,0.86436737,0.123822786,-0.4366178,-0.21656856
61752,-44.52047,34.43416,-42.589462,-0.14117654,0.6017949,9.672387,-0.02275473,-0.016187929,0.029168814,-0.17276861,-0.052935276,-0.9835389,0.86436737,0.123822786,-0.4366178,-0.21656856
61859,-43.107834,31.371971,-40.675037,-0.17108682,0.6161518,9.64128,-0.02031127,-0.021227568,0.033292156,-0.15938187,-0.04940906,-0.9859798,0.8741351,0.11285689,-0.41904044,-0.21807405
61966,-43.107834,31.371971,-40.675037,-0.17108682,0.6161518,9.64128,-0.02031127,-0.021227568,0.033292156,-0.15938187,-0.04940906,-0.9859798,0.8741351,0.11285689,-0.41904044,-0.21807405
62073,-42.27366,29.690872,-39.6353,-0.15194423,0.61555356,9.644272,-0.01817324,-0.020158552,0.029626964,-0.1719952,-0.048313852,-0.9839123,0.87951535,0.10665047,-0.40893605,-0.21874577
62179,-41.563725,28.386503,-38.8363,-0.14057833,0.6233303,9.582656,-0.02367103,-0.019242255,0.02947425,-0.15908477,-0.04466041,-0.9862543,0.88376313,0.10184107,-0.4006269,-0.21929248
62286,-41.563725,28.386503,-38.8363,-0.14057833,0.6233303,9.582656,-0.02367103,-0.019242255,0.02947425,-0.15908477,-0.04466041,-0.9862543,0.88376313,0.10184107,-0.4006269,-0.21929248
62392,-40.02468,25.894089,-37.309204,-0.17527425,0.60777694,9.632307,-0.02351831,-0.016646078,0.026267204,-0.16825546,-0.045826983,-0.9846776,0.89214814,0.09278075,-0.38333854,-0.22026117
62500,-39.4178,24.99103,-36.76292,-0.13698909,0.58983076,9.617352,-0.021533,-0.016798794,0.032070424,-0.15455256,-0.04680646,-0.9868752,0.89523304,0.0894683,-0.3766856,-0.22059298
62606,-38.99686,24.413805,-36.40594,-0.17288142,0.60777694,9.616754,-0.020463986,-0.0154243475,0.027794369,-0.15371169,-0.04785577,-0.9869562,0.8972768,0.08743138,-0.37217158,-0.22076769
62712,-37.93428,22.954603,-35.517277,-0.15014961,0.61076796,9.605986,-0.023060162,-0.019242255,0.028710665,-0.15891443,-0.048122846,-0.98611885,0.9023585,0.08205642,-0.36074385,-0.22108777
62819,-37.497887,22.386305,-35.185524,-0.15373884,0.6251249,9.647861,-0.021991149,-0.021380283,0.026725354,-0.14579615,-0.036768626,-0.9886311,0.9043354,0.0799175,-0.35611916,-0.22129144
62926,-37.273556,22.093815,-35.013382,-0.1274178,0.6089733,9.61137,-0.030085113,-0.016340645,0.029932396,-0.15152556,-0.050158218,-0.9871799,0.90534955,0.07880513,-0.3537366,-0.22136474
63032,-35.888523,20.44447,-34.050392,-0.16809578,0.61495537,9.608977,-0.02565634,-0.015271631,0.029321533,-0.16585466,-0.042445358,-0.98523635,0.91123396,0.072660156,-0.3393471,-0.22184849
63139,-35.176117,19.656727,-33.576107,-0.16331014,0.61794645,9.659226,-0.024587328,-0.016798794,0.027641652,-0.17013785,-0.05369311,-0.9839564,0.9141295,0.06978689,-0.33204496,-0.22190799
63246,-34.685375,19.135778,-33.262623,-0.14476576,0.58564335,9.624531,-0.024129178,-0.016035212,0.030085113,-0.15725605,-0.055914383,-0.9859737,0.91606516,0.067893416,-0.3270533,-0.22192614
63352,-33.950397,18.369642,-32.807636,-0.15792629,0.6173482,9.625129,-0.023365596,-0.018020526,0.028863383,-0.1567488,-0.042710032,-0.9867146,0.9188969,0.06505772,-0.3195962,-0.22193296
63459,-33.18984,17.63818,-32.37126,-0.13220344,0.6023931,9.6687975,-0.025809057,-0.012675454,0.029168814,-0.1678401,-0.05336823,-0.9843686,0.92168707,0.062434666,-0.3119969,-0.22192968
63566,-32.677715,17.138998,-32.08089,-0.1477568,0.637089,9.6347,-0.025045475,-0.01695151,0.03023783,-0.17750128,-0.04731088,-0.9829827,0.9235406,0.060559414,-0.30685735,-0.2219097
63673,-32.419483,16.915482,-31.94195,-0.17527425,0.61914283,9.596415,-0.01863139,-0.018020526,0.0290161,-0.15996975,-0.057832167,-0.98542637,0.9244391,0.059807424,-0.3043209,-0.22186548
63779,-30.566057,15.296602,-31.03063,-0.15493526,0.61375904,9.610772,-0.02687807,-0.019547688,0.028099801,-0.16908526,-0.03692686,-0.9849094,0.9305984,0.053825464,-0.28606498,-0.22193757
63886,-30.566057,15.296602,-31.03063,-0.15493526,0.61375904,9.610772,-0.02687807,-0.019547688,0.028099801,-0.16908526,-0.03692686,-0.9849094,0.9305984,0.053825464,-0.28606498,-0.22193757
63992,-28.921576,13.994448,-30.273787,-0.1495514,0.61495537,9.608379,-0.019242255,-0.020158552,0.030543262,-0.18013142,-0.053894296,-0.982165,0.9357046,0.049147017,-0.2700609,-0.22160468
64099,-28.075064,13.346823,-29.903103,-0.1495514,0.6251249,9.646664,-0.01985312,-0.016340645,0.030390546,-0.16808021,-0.04247942,-0.9848576,0.9382144,0.046766255,-0.26184475,-0.22136837
64207,-27.790878,13.139978,-29.789,-0.14057833,0.60837513,9.626924,-0.02397646,-0.01771509,0.02733622,-0.15278757,-0.044000965,-0.987279,0.9390216,0.04601368,-0.2591068,-0.2213252
64312,-27.790878,13.139978,-29.789,-0.14057833,0.60837513,9.626924,-0.02397646,-0.01771509,0.02733622,-0.15278757,-0.044000965,-0.987279,0.9390216,0.04601368,-0.2591068,-0.2213252
64419,-26.917027,12.523109,-29.446867,-0.15074782,0.60000026,9.610772,-0.023365596,-0.018478675,0.027030788,-0.16646433,-0.03234602,-0.9855168,0.9414446,0.043790087,-0.2507147,-0.22114864
64526,-26.917027,12.523109,-29.446867,-0.15074782,0.60000026,9.610772,-0.023365596,-0.018478675,0.027030788,-0.16646433,-0.03234602,-0.9855168,0.9414446,0.043790087,-0.2507147,-0.22114864
64632,-26.917027,12.523109,-29.446867,-0.15074782,0.60000026,9.610772,-0.023365596,-0.018478675,0.027030788,-0.16646433,-0.03234602,-0.9855168,0.9414446,0.043790087,-0.2507147,-0.22114864
64739,-22.441751,9.715373,-27.895042,-0.15014961,0.619741,9.613165,-0.025503622,-0.01695151,0.027794369,-0.16175327,-0.0393837,-0.986045,0.9525173,0.03387884,-0.20819701,-0.21958394
64846,-22.133144,9.543148,-27.805368,-0.15314065,0.62452674,9.620941,-0.022602012,-0.019394971,0.02657264,-0.15463158,-0.04049083,-0.98714215,0.95318955,0.03328459,-0.20529567,-0.21948908
64952,-21.198927,9.028628,-27.526901,-0.15314065,0.61854464,9.615558,-0.021838432,-0.01771509,0.030085113,-0.1651445,-0.039072372,-0.98549515,0.9551959,0.03151709,-0.19651246,-0.21906689
65059,-20.881626,8.852491,-27.434778,-0.15672988,0.6095715,9.624531,-0.02565634,-0.01695151,0.0290161,-0.1546291,-0.039617073,-0.98717797,0.9558591,0.030888088,-0.19352365,-0.21892431
65166,-20.565172,8.686375,-27.344053,-0.15553346,0.6095715,9.616156,-0.025961772,-0.019089539,0.02977968,-0.17137215,-0.058514513,-0.98346716,0.95650876,0.030332157,-0.19055957,-0.21876469
65272,-18.30026,7.562148,-26.73204,-0.11784651,0.62213385,9.501899,-0.022602012,-0.020158552,0.030695977,-0.16689317,-0.048423976,-0.98478514,0.9608663,0.026660439,-0.16942818,-0.21752998
65379,-18.30026,7.562148,-26.73204,-0.11784651,0.62213385,9.501899,-0.022602012,-0.020158552,0.030695977,-0.16689317,-0.048423976,-0.98478514,0.9608663,0.026660439,-0.16942818,-0.21752998
65486,-15.630427,6.4118114,-26.102886,-0.15194423,0.6490531,9.645468,-0.02657264,-0.015118915,0.026267204,-0.16190809,-0.056914162,-0.9851632,0.9653263,0.02331431,-0.14477056,-0.21597007
65592,-14.95529,6.132566,-25.952986,-0.14835499,0.6239284,9.622736,-0.02275473,-0.01863139,0.029932396,-0.16744657,-0.045044243,-0.9848516,0.9663551,0.02250074,-0.1385437,-0.21553935
65699,-13.602857,5.527735,-25.64261,-0.14057833,0.61196434,9.6275215,-0.025350908,-0.015882496,0.0290161,-0.15804969,-0.042005416,-0.9865373,0.9683459,0.020436654,-0.12596682,-0.21452485
65806,-12.913418,5.2633276,-25.500103,-0.15912269,0.61854464,9.589834,-0.02565634,-0.018325957,0.0290161,-0.1592057,-0.04895503,-0.9860309,0.96927303,0.019706935,-0.11963305,-0.21403122
65913,-12.226401,5.020739,-25.363564,-0.15613168,0.61495537,9.64128,-0.020922136,-0.019394971,0.029168814,-0.16323832,-0.045656927,-0.98552966,0.97014964,0.019132026,-0.11335652,-0.21352747
66019,-11.160716,4.686893,-25.165209,-0.1495514,0.61016977,9.647861,-0.027183503,-0.014202617,0.030085113,-0.1621286,-0.055565488,-0.9852039,0.9714114,0.018552188,-0.103692316,-0.21275252
66126,-10.108186,4.342329,-24.962576,-0.16809578,0.6269195,9.617352,-0.024892759,-0.014813482,0.03176499,-0.14994049,-0.056876227,-0.98705775,0.9725936,0.017819984,-0.094108336,-0.21186729
66232,-8.690269,3.9372067,-24.716928,-0.019740786,0.61555356,9.618548,-0.024892759,-0.018936822,0.02947425,-0.17150049,-0.05136106,-0.9838443,0.97400224,0.01725335,-0.08129602,-0.2107438
66339,-7.257099,3.7142677,-24.508461,-0.17766707,0.61136615,9.623933,-0.022602012,-0.018020526,0.031001411,-0.16484687,-0.05418245,-0.98482984,0.9751795,0.018179778,-0.06867802,-0.20970881
66446,-6.2064424,3.7876787,-24.393467,-0.15553346,0.6029913,9.649655,-0.020005837,-0.017867807,0.028405234,-0.15884365,-0.05731469,-0.98563874,0.9758395,0.020823598,-0.059855834,-0.20909539
66552,-6.2064424,3.7876787,-24.393467,-0.15553346,0.6029913,9.649655,-0.020005837,-0.017867807,0.028405234,-0.15884365,-0.05731469,-0.98563874,0.9758395,0.020823598,-0.059855834,-0.20909539
66659,-6.3834586,3.871051,-24.682318,-0.13579269,0.5946164,9.586246,-0.025350908,-0.01863139,0.027794369,-0.16816257,-0.051526602,-0.98441166,0.9752224,0.021049969,-0.06156735,-0.21144186
66766,-6.3834586,3.871051,-24.682318,-0.13579269,0.5946164,9.586246,-0.025350908,-0.01863139,0.027794369,-0.16816257,-0.051526602,-0.98441166,0.9752224,0.021049969,-0.06156735,-0.21144186
66872,-6.3372474,4.080702,-25.005737,-0.17407784,0.62153566,9.632307,-0.020463986,-0.0206167,0.028252516,-0.15687576,-0.06090661,-0.9857385,0.9746006,0.022747092,-0.06162561,-0.21409918
66979,-5.8277664,4.2787714,-25.004238,-0.13938192,0.6125626,9.628119,-0.021838432,-0.015882496,0.026267204,-0.15664767,-0.060485713,-0.9858007,0.9747569,0.025401484,-0.057665676,-0.21419244
67086,-5.761734,4.1906257,-24.98742,-0.15314065,0.61914283,9.597611,-0.025350908,-0.017562376,0.032223143,-0.15775785,-0.059720952,-0.98567027,0.97483146,0.024785575,-0.05693601,-0.21412049
67192,-6.0831146,3.7802367,-25.082933,-0.17886348,0.60777694,9.608977,-0.027641652,-0.019700404,0.030390546,-0.16045879,-0.044664856,-0.9860315,0.9746137,0.020634891,-0.058918014,-0.21501394
67299,-6.0583267,3.8450367,-25.179674,-0.13878371,0.46360937,9.629316,-0.021533,-0.02031127,0.027183503,-0.16064355,-0.054799724,-0.98549,0.9744296,0.021183603,-0.05884684,-0.21581286
67406,-6.206588,4.167303,-25.237598,-0.1471586,0.6227321,9.640682,-0.02443461,-0.018325957,0.03191771,-0.16676295,-0.05206434,-0.98462147,0.97419983,0.023609335,-0.060725003,-0.21607807
67512,-5.92604,4.0447764,-25.20651,-0.1489532,0.6143572,9.615558,-0.019242255,-0.017562376,0.031001411,-0.15080704,-0.05149683,-0.987221,0.9743906,0.023121653,-0.05810439,-0.21599102
67619,-5.8313313,4.133401,-25.248924,-0.15254244,0.61076796,9.647263,-0.02687807,-0.01328632,0.02855795,-0.14966907,-0.05602167,-0.9871478,0.9743273,0.024035443,-0.05747566,-0.21634494
67726,-5.7508802,3.6975164,-25.211586,-0.1274178,0.46660042,9.620941,-0.025045475,-0.016646078,0.028252516,-0.15375763,-0.05046938,-0.98681885,0.97451186,0.020501642,-0.055962022,-0.2162743
67832,-5.7508802,3.6975164,-25.211586,-0.1274178,0.46660042,9.620941,-0.025045475,-0.016646078,0.028252516,-0.15375763,-0.05046938,-0.98681885,0.97451186,0.020501642,-0.055962022,-0.2162743
67939,-5.7508802,3.6975164,-25.211586,-0.1274178,0.46660042,9.620941,-0.025045475,-0.016646078,0.028252516,-0.15375763,-0.05046938,-0.98681885,0.97451186,0.020501642,-0.055962022,-0.2162743
68046,-5.5074983,3.8093448,-25.232265,-0.14177473,0.61675,9.646664,-0.023365596,-0.015882496,0.030848695,-0.14737305,-0.042322274,-0.9881751,0.9745387,0.021908972,-0.054108694,-0.21648702
68152,-5.5074983,3.8093448,-25.232265,-0.14177473,0.61675,9.646664,-0.023365596,-0.015882496,0.030848695,-0.14737305,-0.042322274,-0.9881751,0.9745387,0.021908972,-0.054108694,-0.21648702
68259,-5.5074983,3.8093448,-25.232265,-0.14177473,0.61675,9.646664,-0.023365596,-0.015882496,0.030848695,-0.14737305,-0.042322274,-0.9881751,0.9745387,0.021908972,-0.054108694,-0.21648702
68366,-5.5074983,3.8093448,-25.232265,-0.14177473,0.61675,9.646664,-0.023365596,-0.015882496,0.030848695,-0.14737305,-0.042322274,-0.9881751,0.9745387,0.021908972,-0.054108694,-0.21648702
68472,-5.623783,3.8961906,-25.815933,-0.15732808,0.6251249,9.607781,-0.028863383,-0.019394971,0.025045475,-0.14732139,-0.045950074,-0.9880208,0.9733664,0.022142895,-0.055374425,-0.22136222
68579,-5.8889647,3.7908666,-25.953615,-0.14177473,0.62632126,9.663414,-0.021685716,-0.016798794,0.026725354,-0.15314156,-0.046168715,-0.98712516,0.9730236,0.02065947,-0.057446536,-0.22248182
68686,-5.647214,4.126135,-26.05468,-0.12622139,0.62572306,9.647263,-0.023365596,-0.020158552,0.029932396,-0.1515301,-0.053756025,-0.98698986,0.9728488,0.023933338,-0.056067348,-0.22326863
68792,-5.647214,4.126135,-26.05468,-0.12622139,0.62572306,9.647263,-0.023365596,-0.020158552,0.029932396,-0.1515301,-0.053756025,-0.98698986,0.9728488,0.023933338,-0.056067348,-0.22326863
68899,-5.647214,4.126135,-26.05468,-0.12622139,0.62572306,9.647263,-0.023365596,-0.020158552,0.029932396,-0.1515301,-0.053756025,-0.98698986,0.9728488,0.023933338,-0.056067348,-0.22326863
69006,-6.007118,4.019203,-26.417633,-0.14476576,0.5982056,9.628119,-0.02107485,-0.014966198,0.0290161,-0.15801013,-0.050589845,-0.98614067,0.9720283,0.022126721,-0.058982182,-0.22625762
69112,-5.959788,4.101685,-26.446344,-0.13100703,0.60717875,9.6687975,-0.020922136,-0.019242255,0.02947425,-0.153457,-0.05167153,-0.9868034,0.971973,0.022906594,-0.05874964,-0.22647792
69219,-6.0549645,3.9607704,-26.436049,-0.15134603,0.6131607,9.634102,-0.02351831,-0.022143863,0.03145956,-0.16030441,-0.048109114,-0.9858945,0.971985,0.021525579,-0.059275772,-0.22642483
69326,-6.0919337,4.047166,-26.675625,-0.13280165,0.6095715,9.609575,-0.021838432,-0.019089539,0.02977968,-0.16345899,-0.052412882,-0.9851569,0.97147906,0.022059198,-0.05980601,-0.22839665
